pid,trial_index,modality,ui_mode,pressure_label,pressureEnabled_runtime,action,reason,counters_bad,counters_good,rt_ms,correct
P001,91,gaze,adaptive,1,true,declutter,Triggered: RT p75=1093ms, err_burst=2,5,0,742,true
P001,92,gaze,adaptive,1,true,declutter,Triggered: RT p75=1128ms, err_burst=2,6,0,1193,true
P001,93,gaze,adaptive,1,true,declutter,Triggered: RT p75=1117ms, err_burst=2,7,0,548.4000000953674,true
P001,94,gaze,adaptive,1,true,declutter,Triggered: RT p75=1105ms, err_burst=2,8,0,1065.0999999046326,true
P001,95,gaze,adaptive,1,true,declutter,Triggered: RT p75=1093ms, err_burst=2,9,0,1007.5999999046326,true
P001,96,gaze,adaptive,1,true,declutter,Triggered: RT p75=1093ms, err_burst=2,10,0,954.5,false
P001,97,gaze,adaptive,1,true,declutter,Triggered: RT p75=1081ms, err_burst=2,11,0,894.2999999523163,true
P001,98,gaze,adaptive,1,true,declutter,Triggered: RT p75=1084ms, err_burst=2,12,0,1083.9000000953674,true
P001,99,gaze,adaptive,1,true,declutter,Triggered: RT p75=1084ms, err_burst=2,12,0,852.7999999523163,true
P001,100,gaze,adaptive,1,true,declutter,Triggered: RT p75=1084ms, err_burst=2,12,0,777.5,true
P001,128,hand,adaptive,1,true,declutter,Triggered: RT p75=1084ms, err_burst=2,12,0,1623.6999998092651,true
P001,129,hand,adaptive,1,true,declutter,Triggered: RT p75=1084ms, err_burst=2,12,0,964.3000001907347,true
P001,130,hand,adaptive,1,true,declutter,Triggered: RT p75=1084ms, err_burst=2,12,0,1286.0999999046326,true
P001,131,hand,adaptive,1,true,declutter,Triggered: RT p75=1084ms, err_burst=2,12,0,870.2999999523163,true
P001,132,hand,adaptive,1,true,declutter,Triggered: RT p75=1084ms, err_burst=2,12,0,624,true
P001,133,hand,adaptive,1,true,declutter,Triggered: RT p75=1084ms, err_burst=2,12,0,823.5,true
P001,134,hand,adaptive,1,true,declutter,Triggered: RT p75=1084ms, err_burst=2,12,0,1041,true
P001,204,gaze,static,1,true,declutter,Triggered: RT p75=973ms, err_burst=2,5,0,601.7999999523163,true
P001,205,gaze,static,1,true,declutter,Triggered: RT p75=973ms, err_burst=2,6,0,1077.2999999523165,false
P001,206,gaze,static,1,true,declutter,Triggered: RT p75=973ms, err_burst=2,7,0,707.7999999523163,false
P001,207,gaze,static,1,true,declutter,Triggered: RT p75=964ms, err_burst=2,8,0,876.3999998569489,true
P001,208,gaze,static,1,true,declutter,Triggered: RT p75=991ms, err_burst=2,9,0,1186.5,true
P002,141,gaze,static,1,true,declutter,Triggered: RT p75=976ms, err_burst=3,5,0,1111.5,false
P002,142,gaze,static,1,true,declutter,Triggered: RT p75=1017ms, err_burst=3,6,0,1110.699999988079,true
P002,143,gaze,static,1,true,declutter,Triggered: RT p75=1003ms, err_burst=3,7,0,911.0999999940396,true
P002,144,gaze,static,1,true,declutter,Triggered: RT p75=990ms, err_burst=3,8,0,796.2000000029802,true
P002,145,gaze,static,1,true,declutter,Triggered: RT p75=990ms, err_burst=3,9,0,1294.9000000059605,false
P002,146,gaze,static,1,true,declutter,Triggered: RT p75=990ms, err_burst=2,10,0,1026.5,false
P002,147,gaze,static,1,true,declutter,Triggered: RT p75=976ms, err_burst=2,11,0,907.7000000029802,true
P002,148,gaze,static,1,true,declutter,Triggered: RT p75=976ms, err_burst=2,12,0,1062.7000000029802,false
P002,149,gaze,static,1,true,declutter,Triggered: RT p75=1017ms, err_burst=2,13,0,1068.2999999970198,true
P002,150,gaze,static,1,true,declutter,Triggered: RT p75=1049ms, err_burst=2,14,0,1202.5999999940395,true
P002,151,gaze,static,1,true,declutter,Triggered: RT p75=1040ms, err_burst=2,15,0,821.2000000029802,true
P002,152,gaze,static,1,true,declutter,Triggered: RT p75=1068ms, err_burst=2,16,0,1651,true
P002,153,gaze,static,1,true,declutter,Triggered: RT p75=1068ms, err_burst=2,17,0,1147.7000000029802,false
P002,154,gaze,static,1,true,declutter,Triggered: RT p75=1094ms, err_burst=2,18,0,1102.8999999910593,true
P002,182,gaze,adaptive,1,true,declutter,Triggered: RT p75=1116ms, err_burst=2,19,0,1093.5999999940395,true
P002,183,gaze,adaptive,1,true,declutter,Triggered: RT p75=1111ms, err_burst=2,20,0,863.8999999910593,true
P002,184,gaze,adaptive,1,true,declutter,Triggered: RT p75=1127ms, err_burst=2,21,0,1216.3999999910593,true
P002,185,gaze,adaptive,1,true,declutter,Triggered: RT p75=1121ms, err_burst=2,22,0,972.7000000029802,true
P002,186,gaze,adaptive,1,true,declutter,Triggered: RT p75=1137ms, err_burst=2,23,0,1238.9000000059605,true
P002,187,gaze,adaptive,1,true,declutter,Triggered: RT p75=1137ms, err_burst=2,24,0,1183,false
P002,188,gaze,adaptive,1,true,declutter,Triggered: RT p75=1132ms, err_burst=2,25,0,907.2999999970198,true
P002,189,gaze,adaptive,1,true,declutter,Triggered: RT p75=1146ms, err_burst=1,26,0,1445,true
P002,190,gaze,adaptive,1,true,declutter,Triggered: RT p75=1160ms, err_burst=1,27,0,1334.9000000059605,true
P002,191,gaze,adaptive,1,true,declutter,Triggered: RT p75=1175ms, err_burst=1,28,0,1705.4000000059605,true
P002,192,gaze,adaptive,1,true,declutter,Triggered: RT p75=1175ms, err_burst=1,28,0,1135.2000000029802,true
P002,193,gaze,adaptive,1,true,declutter,Triggered: RT p75=1175ms, err_burst=1,28,0,747.2000000029802,true
P002,194,gaze,adaptive,1,true,declutter,Triggered: RT p75=1175ms, err_burst=1,28,0,1118.7999999970198,true
P002,195,gaze,adaptive,1,true,declutter,Triggered: RT p75=1175ms, err_burst=1,28,0,1025.4000000059605,true
P003,52,hand,adaptive,1,true,inflate_width,Triggered: RT p75=1376ms, err_burst=2,5,0,1297.8999998569489,true
P003,53,hand,adaptive,1,true,inflate_width,Triggered: RT p75=1388ms, err_burst=2,6,0,1591.9000000953674,true
P003,54,hand,adaptive,1,true,inflate_width,Triggered: RT p75=1389ms, err_burst=2,7,0,1454,true
P003,55,hand,adaptive,1,true,inflate_width,Triggered: RT p75=1389ms, err_burst=2,8,0,1110.7000000476835,true
P003,56,hand,adaptive,1,true,inflate_width,Triggered: RT p75=1398ms, err_burst=2,9,0,1526.3000001907349,true
P003,57,hand,adaptive,1,true,inflate_width,Triggered: RT p75=1398ms, err_burst=2,9,0,1360.3999998569489,true
P003,58,hand,adaptive,1,true,inflate_width,Triggered: RT p75=1398ms, err_burst=2,9,0,790.2000000476837,true
P003,59,hand,adaptive,1,true,inflate_width,Triggered: RT p75=1398ms, err_burst=2,9,0,784,true
P003,60,hand,adaptive,1,true,inflate_width,Triggered: RT p75=1398ms, err_burst=2,9,0,1804,true
P003,61,hand,adaptive,1,true,inflate_width,Triggered: RT p75=1398ms, err_burst=2,9,0,1005.2999999523164,true
P003,62,hand,adaptive,1,true,inflate_width,Triggered: RT p75=1398ms, err_burst=2,9,0,1271.7999999523165,true
P003,63,hand,adaptive,1,true,inflate_width,Triggered: RT p75=1398ms, err_burst=2,9,0,1178.7000000476835,true
P003,64,hand,adaptive,1,true,inflate_width,Triggered: RT p75=1398ms, err_burst=2,9,0,721.9000000953674,true
P003,132,gaze,static,1,true,declutter,Triggered: RT p75=1693ms, err_burst=2,5,0,865.2000000476837,true
P003,133,gaze,static,1,true,declutter,Triggered: RT p75=1647ms, err_burst=2,6,0,1576.9000000953674,true
P003,134,gaze,static,1,true,declutter,Triggered: RT p75=1629ms, err_burst=2,7,0,930.8999998569489,true
P003,135,gaze,static,1,true,declutter,Triggered: RT p75=1612ms, err_burst=2,8,0,1295.7999999523165,true
P003,136,gaze,static,1,true,declutter,Triggered: RT p75=1594ms, err_burst=2,9,0,1328,true
P003,137,gaze,static,1,true,declutter,Triggered: RT p75=1577ms, err_burst=2,10,0,750.4000000953674,true
P003,138,gaze,static,1,true,declutter,Triggered: RT p75=1577ms, err_burst=2,10,0,1066.2999999523165,true
P003,139,gaze,static,1,true,declutter,Triggered: RT p75=1577ms, err_burst=2,10,0,1703.7000000476835,true
P003,140,gaze,static,1,true,declutter,Triggered: RT p75=1577ms, err_burst=2,10,0,2544.7999999523163,true
P003,141,gaze,static,1,true,declutter,Triggered: RT p75=1577ms, err_burst=2,10,0,1637.5,true
P003,142,gaze,static,1,true,declutter,Triggered: RT p75=1577ms, err_burst=2,10,0,2402,true
P003,143,gaze,static,1,true,declutter,Triggered: RT p75=1577ms, err_burst=2,10,0,3047.400000095367,false
P003,144,gaze,static,1,true,declutter,Triggered: RT p75=1577ms, err_burst=2,10,0,1969.2999999523165,true
P003,145,gaze,static,1,true,declutter,Triggered: RT p75=1577ms, err_burst=2,10,0,2091.2000000476837,true
P003,146,gaze,static,1,true,declutter,Triggered: RT p75=1577ms, err_burst=2,10,0,1496.2000000476835,true
P003,147,gaze,static,1,true,declutter,Triggered: RT p75=1577ms, err_burst=2,10,0,1549.2000000476835,true
P003,148,gaze,static,1,true,declutter,Triggered: RT p75=1577ms, err_burst=2,10,0,2476.2999999523163,false
P003,149,gaze,static,1,true,declutter,Triggered: RT p75=1577ms, err_burst=2,10,0,2145.599999904633,true
P003,150,gaze,static,1,true,declutter,Triggered: RT p75=1577ms, err_burst=2,10,0,2225.100000143051,false
P003,151,gaze,static,1,true,declutter,Triggered: RT p75=1577ms, err_burst=2,10,0,1150.2999999523165,true
P003,152,gaze,static,1,true,declutter,Triggered: RT p75=1577ms, err_burst=2,10,0,1232,true
P003,153,gaze,static,1,true,declutter,Triggered: RT p75=1577ms, err_burst=2,10,0,1076.5999999046326,true
P003,154,gaze,static,1,true,declutter,Triggered: RT p75=1577ms, err_burst=2,10,0,981.0999999046326,true
P004,116,gaze,static,1,true,declutter,Triggered: RT p75=1186ms, err_burst=2,5,0,1176.7000000029802,true
P004,117,gaze,static,1,true,declutter,Triggered: RT p75=1168ms, err_burst=2,6,0,801.2999999970198,true
P004,118,gaze,static,1,true,declutter,Triggered: RT p75=1143ms, err_burst=2,7,0,767.4000000059605,true
P004,119,gaze,static,1,true,declutter,Triggered: RT p75=1168ms, err_burst=2,8,0,1461.199999988079,true
P004,120,gaze,static,1,true,declutter,Triggered: RT p75=1168ms, err_burst=2,9,0,1070.8999999910593,false
P004,121,gaze,static,1,true,declutter,Triggered: RT p75=1168ms, err_burst=2,10,0,1654.5,false
P004,122,gaze,static,1,true,declutter,Triggered: RT p75=1168ms, err_burst=3,11,0,1196,false
P004,123,gaze,static,1,true,declutter,Triggered: RT p75=1160ms, err_burst=3,12,0,683.4000000059605,true
P004,124,gaze,static,1,true,declutter,Triggered: RT p75=1160ms, err_burst=3,13,0,1755.2999999970198,false
P004,125,gaze,static,1,true,declutter,Triggered: RT p75=1152ms, err_burst=3,14,0,951.2999999970198,true
P004,126,gaze,static,1,true,declutter,Triggered: RT p75=1152ms, err_burst=3,15,0,1476.5,false
P004,127,gaze,static,1,true,declutter,Triggered: RT p75=1144ms, err_burst=3,16,0,783.0999999940395,true
P004,155,gaze,adaptive,1,true,declutter,Triggered: RT p75=1130ms, err_burst=5,17,0,1157.2000000029802,false
P004,156,gaze,adaptive,1,true,declutter,Triggered: RT p75=1142ms, err_burst=5,18,0,1313.2999999970198,true
P004,157,gaze,adaptive,1,true,declutter,Triggered: RT p75=1142ms, err_burst=5,19,0,910.2999999970198,false
P004,158,gaze,adaptive,1,true,declutter,Triggered: RT p75=1141ms, err_burst=5,20,0,1039.4000000059605,true
P004,159,gaze,adaptive,1,true,declutter,Triggered: RT p75=1141ms, err_burst=5,21,0,1024.5999999940395,false
P004,160,gaze,adaptive,1,true,declutter,Triggered: RT p75=1141ms, err_burst=5,22,0,707,false
P004,161,gaze,adaptive,1,true,declutter,Triggered: RT p75=1141ms, err_burst=4,23,0,1190.5,false
P004,162,gaze,adaptive,1,true,declutter,Triggered: RT p75=1141ms, err_burst=3,24,0,610.2000000029802,true
P004,163,gaze,adaptive,1,true,declutter,Triggered: RT p75=1141ms, err_burst=3,25,0,1116.5,false
P004,164,gaze,adaptive,1,true,declutter,Triggered: RT p75=1141ms, err_burst=3,26,0,713.4000000059605,false
P004,165,gaze,adaptive,1,true,declutter,Triggered: RT p75=1141ms, err_burst=3,27,0,1375.699999988079,false
P004,166,gaze,adaptive,1,true,declutter,Triggered: RT p75=1143ms, err_burst=3,28,0,1236.5,true
P004,167,gaze,adaptive,1,true,declutter,Triggered: RT p75=1143ms, err_burst=3,29,0,1142.7999999970198,false
P004,168,gaze,adaptive,1,true,declutter,Triggered: RT p75=1143ms, err_burst=3,30,0,1284.4000000059605,false
P004,169,gaze,adaptive,1,true,declutter,Triggered: RT p75=1142ms, err_burst=3,31,0,601.1000000089407,true
P004,170,gaze,adaptive,1,true,declutter,Triggered: RT p75=1146ms, err_burst=3,32,0,1195,true
P004,171,gaze,adaptive,1,true,declutter,Triggered: RT p75=1144ms, err_burst=3,33,0,835.7999999970198,true
P004,172,gaze,adaptive,1,true,declutter,Triggered: RT p75=1144ms, err_burst=3,34,0,1084.9000000059605,false
P004,173,gaze,adaptive,1,true,declutter,Triggered: RT p75=1144ms, err_burst=2,35,0,993.4000000059604,false
P004,174,gaze,adaptive,1,true,declutter,Triggered: RT p75=1143ms, err_burst=2,36,0,665.0999999940395,true
P004,175,gaze,adaptive,1,true,declutter,Triggered: RT p75=1143ms, err_burst=2,37,0,1257.2999999970198,false
P004,176,gaze,adaptive,1,true,declutter,Triggered: RT p75=1142ms, err_burst=2,38,0,640.8999999910593,true
P004,177,gaze,adaptive,1,true,declutter,Triggered: RT p75=1142ms, err_burst=2,39,0,982.7000000029802,false
P004,178,gaze,adaptive,1,true,declutter,Triggered: RT p75=1142ms, err_burst=2,40,0,459.3999999910593,false
P004,179,gaze,adaptive,1,true,declutter,Triggered: RT p75=1146ms, err_burst=2,41,0,1296,true
P004,180,gaze,adaptive,1,true,declutter,Triggered: RT p75=1144ms, err_burst=2,42,0,957.2000000029802,true
P004,181,gaze,adaptive,1,true,declutter,Triggered: RT p75=1144ms, err_burst=2,43,0,649.5,false
P005,51,gaze,static,1,true,declutter,Triggered: RT p75=1062ms, err_burst=2,5,0,542.2999999970198,true
P005,52,gaze,static,1,true,declutter,Triggered: RT p75=1059ms, err_burst=2,6,0,699.1999999880791,true
P005,53,gaze,static,1,true,declutter,Triggered: RT p75=1059ms, err_burst=2,7,0,698,false
P005,54,gaze,static,1,true,declutter,Triggered: RT p75=1059ms, err_burst=2,8,0,1136.1000000089407,false
P005,55,gaze,static,1,true,declutter,Triggered: RT p75=1059ms, err_burst=3,9,0,1260.8999999910593,false
P005,56,gaze,static,1,true,declutter,Triggered: RT p75=1067ms, err_burst=3,10,0,1105.2999999970198,true
P005,57,gaze,static,1,true,declutter,Triggered: RT p75=1070ms, err_burst=3,11,0,1071.2000000029802,true
P005,58,gaze,static,1,true,declutter,Triggered: RT p75=1069ms, err_burst=3,12,0,1009.7999999970198,true
P005,59,gaze,static,1,true,declutter,Triggered: RT p75=1069ms, err_burst=3,13,0,585.5,false
P005,60,gaze,static,1,true,declutter,Triggered: RT p75=1068ms, err_burst=3,14,0,713,true
P005,61,gaze,static,1,true,declutter,Triggered: RT p75=1067ms, err_burst=3,15,0,774.3999999910593,true
P005,62,gaze,static,1,true,declutter,Triggered: RT p75=1064ms, err_burst=3,16,0,895.5999999940395,true
P005,63,gaze,static,1,true,declutter,Triggered: RT p75=1062ms, err_burst=2,17,0,956.2000000029802,true
P005,64,gaze,static,1,true,declutter,Triggered: RT p75=1062ms, err_burst=2,17,0,720.2999999970198,true
P005,65,gaze,static,1,true,declutter,Triggered: RT p75=1062ms, err_burst=2,17,0,721.4000000059605,true
P005,66,gaze,static,1,true,declutter,Triggered: RT p75=1062ms, err_burst=2,17,0,724,true
P005,67,gaze,static,1,true,declutter,Triggered: RT p75=1062ms, err_burst=2,17,0,1091.3999999910593,true
P005,68,gaze,static,1,true,declutter,Triggered: RT p75=1062ms, err_burst=2,17,0,587.2000000029802,true
P005,69,gaze,static,1,true,declutter,Triggered: RT p75=1062ms, err_burst=2,17,0,943.5,true
P005,70,gaze,static,1,true,declutter,Triggered: RT p75=1062ms, err_burst=2,17,0,897,true
P005,71,gaze,static,1,true,declutter,Triggered: RT p75=1062ms, err_burst=2,17,0,885.7999999970198,true
P006,8,gaze,static,1,true,declutter,Triggered: RT p75=1066ms, err_burst=3,5,0,836.5,true
P006,9,gaze,static,1,true,declutter,Triggered: RT p75=1139ms, err_burst=3,6,0,1467.3000000000466,true
P006,10,gaze,static,1,true,declutter,Triggered: RT p75=1139ms, err_burst=3,7,0,1309.5,true
P006,11,gaze,static,1,true,declutter,Triggered: RT p75=1066ms, err_burst=3,8,0,1062.3000000000466,true
P006,12,gaze,static,1,true,declutter,Triggered: RT p75=1139ms, err_burst=3,9,0,1163.5,true
P006,13,gaze,static,1,true,declutter,Triggered: RT p75=1164ms, err_burst=3,10,0,1272.5,false
P006,14,gaze,static,1,true,declutter,Triggered: RT p75=1200ms, err_burst=3,11,0,1371.2000000001865,false
P006,15,gaze,static,1,true,declutter,Triggered: RT p75=1200ms, err_burst=2,12,0,884.6999999999534,true
P006,16,gaze,static,1,true,declutter,Triggered: RT p75=1237ms, err_burst=2,13,0,1764.2999999998135,false
P006,17,gaze,static,1,true,declutter,Triggered: RT p75=1273ms, err_burst=2,14,0,1254.8999999999069,false
P006,18,gaze,static,1,true,declutter,Triggered: RT p75=1273ms, err_burst=2,15,0,922.8999999999068,true
P006,19,gaze,static,1,true,declutter,Triggered: RT p75=1237ms, err_burst=2,16,0,827.6999999999534,true
P006,20,gaze,static,1,true,declutter,Triggered: RT p75=1200ms, err_burst=2,17,0,1128.1999999999534,true
P006,21,gaze,static,1,true,declutter,Triggered: RT p75=1200ms, err_burst=2,18,0,1342.3000000000466,false
P006,22,gaze,static,1,true,declutter,Triggered: RT p75=1164ms, err_burst=2,19,0,656.6000000000931,true
P006,23,gaze,static,1,true,declutter,Triggered: RT p75=1273ms, err_burst=2,20,0,1448.3000000000466,true
P006,24,gaze,static,1,true,declutter,Triggered: RT p75=1237ms, err_burst=2,21,0,925.2000000001864,true
P006,25,gaze,static,1,true,declutter,Triggered: RT p75=1200ms, err_burst=2,22,0,970.9000000001396,true
P006,26,gaze,static,1,true,declutter,Triggered: RT p75=1200ms, err_burst=1,23,0,1338.1999999999534,false
P006,74,hand,static,1,true,declutter,Triggered: RT p75=1200ms, err_burst=1,23,0,1989.6999999997208,true
P006,75,hand,static,1,true,declutter,Triggered: RT p75=1200ms, err_burst=1,23,0,1705.1000000000931,true
P006,76,hand,static,1,true,declutter,Triggered: RT p75=1200ms, err_burst=1,23,0,947.3000000002794,true
P006,77,hand,static,1,true,declutter,Triggered: RT p75=1200ms, err_burst=1,23,0,816.2999999998137,true
P006,78,hand,static,1,true,declutter,Triggered: RT p75=1200ms, err_burst=1,23,0,995.9000000003724,true
P006,79,hand,static,1,true,declutter,Triggered: RT p75=1200ms, err_burst=1,23,0,1346.4000000003723,true
P006,101,gaze,adaptive,1,true,declutter,Triggered: RT p75=2091ms, err_burst=0,24,0,3873,true
P006,102,gaze,adaptive,1,true,declutter,Triggered: RT p75=2091ms, err_burst=0,24,0,1437.5,true
P006,103,gaze,adaptive,1,true,declutter,Triggered: RT p75=2091ms, err_burst=0,24,0,1658.3999999999069,true
P006,104,gaze,adaptive,1,true,declutter,Triggered: RT p75=2091ms, err_burst=0,24,0,1926.2999999998135,true
P006,105,gaze,adaptive,1,true,declutter,Triggered: RT p75=2091ms, err_burst=0,24,0,1291.2999999998135,true
P006,106,gaze,adaptive,1,true,declutter,Triggered: RT p75=2091ms, err_burst=0,24,0,2731.2000000001863,true
P006,107,gaze,adaptive,1,true,declutter,Triggered: RT p75=2091ms, err_burst=0,24,0,905.8999999999068,true
P006,108,gaze,adaptive,1,true,declutter,Triggered: RT p75=2091ms, err_burst=0,24,0,2016.5,true
P006,109,gaze,adaptive,1,true,declutter,Triggered: RT p75=2091ms, err_burst=0,24,0,1803.8999999999069,false
P006,110,gaze,adaptive,1,true,declutter,Triggered: RT p75=2091ms, err_burst=0,24,0,1742,true
P006,116,gaze,adaptive,1,true,declutter,Triggered: RT p75=2265ms, err_burst=2,5,0,2004.6000000000931,true
P006,117,gaze,adaptive,1,true,declutter,Triggered: RT p75=2250ms, err_burst=2,6,0,1773.2999999998135,true
P006,118,gaze,adaptive,1,true,declutter,Triggered: RT p75=2250ms, err_burst=2,7,0,1785.7999999998135,true
P006,119,gaze,adaptive,1,true,declutter,Triggered: RT p75=2308ms, err_burst=2,8,0,2581.2999999998137,true
P006,120,gaze,adaptive,1,true,declutter,Triggered: RT p75=2312ms, err_burst=2,9,0,2382.399999999907,true
P006,121,gaze,adaptive,1,true,declutter,Triggered: RT p75=2365ms, err_burst=2,10,0,2580.1999999997206,true
P006,122,gaze,adaptive,1,true,declutter,Triggered: RT p75=2365ms, err_burst=2,10,0,2335.5,true
P006,123,gaze,adaptive,1,true,declutter,Triggered: RT p75=2365ms, err_burst=2,10,0,1165.6999999997206,true
P006,124,gaze,adaptive,1,true,declutter,Triggered: RT p75=2365ms, err_burst=2,10,0,995.5,true
P006,125,gaze,adaptive,1,true,declutter,Triggered: RT p75=2365ms, err_burst=2,10,0,2164.600000000093,true
P007,51,gaze,adaptive,1,true,declutter,Triggered: RT p75=1871ms, err_burst=4,5,0,2025.0999999940395,false
P007,52,gaze,adaptive,1,true,declutter,Triggered: RT p75=1917ms, err_burst=4,6,0,3139.79999999702,true
P007,53,gaze,adaptive,1,true,declutter,Triggered: RT p75=1960ms, err_burst=4,7,0,1960.199999988079,true
P007,54,gaze,adaptive,1,true,declutter,Triggered: RT p75=1946ms, err_burst=4,8,0,1100.7999999970198,true
P007,55,gaze,adaptive,1,true,declutter,Triggered: RT p75=1931ms, err_burst=3,9,0,1002.1000000089408,true
P007,56,gaze,adaptive,1,true,declutter,Triggered: RT p75=1917ms, err_burst=2,10,0,1158.5999999940395,true
P007,57,gaze,adaptive,1,true,declutter,Triggered: RT p75=1917ms, err_burst=2,10,0,1839,true
P007,58,gaze,adaptive,1,true,declutter,Triggered: RT p75=1917ms, err_burst=2,10,0,1089.2000000029802,true
P007,59,gaze,adaptive,1,true,declutter,Triggered: RT p75=1917ms, err_burst=2,10,0,1818.79999999702,true
P007,60,gaze,adaptive,1,true,declutter,Triggered: RT p75=1917ms, err_burst=2,10,0,1208.199999988079,true
P007,61,gaze,adaptive,1,true,declutter,Triggered: RT p75=1917ms, err_burst=2,10,0,1985.300000011921,true
P007,62,gaze,adaptive,1,true,declutter,Triggered: RT p75=1917ms, err_burst=2,10,0,2041.70000000298,false
P007,63,gaze,adaptive,1,true,declutter,Triggered: RT p75=1917ms, err_burst=2,10,0,1533.2999999970198,true
P007,64,gaze,adaptive,1,true,declutter,Triggered: RT p75=1917ms, err_burst=2,10,0,1879.0999999940395,false
P007,65,gaze,adaptive,1,true,declutter,Triggered: RT p75=1917ms, err_burst=2,10,0,1529.2999999970198,true
P007,66,gaze,adaptive,1,true,declutter,Triggered: RT p75=1917ms, err_burst=2,10,0,1506.2999999970198,true
P009,78,gaze,adaptive,1,true,declutter,Triggered: RT p75=1248ms, err_burst=3,5,0,1277,true
P009,79,gaze,adaptive,1,true,declutter,Triggered: RT p75=1276ms, err_burst=3,6,0,1337.2999999523165,true
P009,80,gaze,adaptive,1,true,declutter,Triggered: RT p75=1276ms, err_burst=3,7,0,954,true
P009,81,gaze,adaptive,1,true,declutter,Triggered: RT p75=1276ms, err_burst=3,8,0,1051.600000023842,true
P009,82,gaze,adaptive,1,true,declutter,Triggered: RT p75=1275ms, err_burst=3,9,0,915,true
P009,83,gaze,adaptive,1,true,declutter,Triggered: RT p75=1276ms, err_burst=3,10,0,860.8999999761581,false
P009,84,gaze,adaptive,1,true,declutter,Triggered: RT p75=1276ms, err_burst=2,11,0,1179.7999999523165,true
P009,85,gaze,adaptive,1,true,declutter,Triggered: RT p75=1276ms, err_burst=2,11,0,1065.100000023842,true
P009,86,gaze,adaptive,1,true,declutter,Triggered: RT p75=1276ms, err_burst=2,11,0,1169.600000023842,true
P009,87,gaze,adaptive,1,true,declutter,Triggered: RT p75=1276ms, err_burst=2,11,0,1054.2000000476835,true
P009,88,gaze,adaptive,1,true,declutter,Triggered: RT p75=1276ms, err_burst=2,11,0,1035.7999999523165,false
P009,97,gaze,adaptive,1,true,declutter,Triggered: RT p75=1159ms, err_burst=2,5,0,975.0999999046326,true
P009,98,gaze,adaptive,1,true,declutter,Triggered: RT p75=1153ms, err_burst=2,6,0,614.8999999761581,true
P009,99,gaze,adaptive,1,true,declutter,Triggered: RT p75=1110ms, err_burst=2,7,0,580.7999999523163,true
P009,100,gaze,adaptive,1,true,declutter,Triggered: RT p75=1097ms, err_burst=2,8,0,787.1000000238419,true
P009,128,hand,adaptive,1,true,declutter,Triggered: RT p75=1097ms, err_burst=2,8,0,658.7999999523163,true
P009,129,hand,adaptive,1,true,declutter,Triggered: RT p75=1097ms, err_burst=2,8,0,1005.5,true
P009,130,hand,adaptive,1,true,declutter,Triggered: RT p75=1097ms, err_burst=2,8,0,665.2999999523163,true
P009,131,hand,adaptive,1,true,declutter,Triggered: RT p75=1097ms, err_burst=2,8,0,795.1000000238419,true
P009,182,gaze,static,1,true,declutter,Triggered: RT p75=1060ms, err_burst=2,9,0,4154,true
P009,183,gaze,static,1,true,declutter,Triggered: RT p75=1060ms, err_burst=2,9,0,1037.399999976158,true
P009,184,gaze,static,1,true,declutter,Triggered: RT p75=1060ms, err_burst=2,9,0,995.899999976158,true
P009,185,gaze,static,1,true,declutter,Triggered: RT p75=1060ms, err_burst=2,9,0,873.6000000238419,true
P009,186,gaze,static,1,true,declutter,Triggered: RT p75=1060ms, err_burst=2,9,0,888.2999999523163,true
P010,105,hand,adaptive,1,true,inflate_width,Triggered: RT p75=1154ms, err_burst=2,5,0,1166.0999999642372,true
P010,106,hand,adaptive,1,true,inflate_width,Triggered: RT p75=1154ms, err_burst=2,6,0,835.8000000119209,true
P010,107,hand,adaptive,1,true,inflate_width,Triggered: RT p75=1154ms, err_burst=2,7,0,956.1999999880792,true
P010,108,hand,adaptive,1,true,inflate_width,Triggered: RT p75=1154ms, err_burst=1,8,0,1220.100000023842,true
P010,109,hand,adaptive,1,true,inflate_width,Triggered: RT p75=1154ms, err_burst=1,8,0,912.0999999642372,true
P010,110,hand,adaptive,1,true,inflate_width,Triggered: RT p75=1154ms, err_burst=1,8,0,604.1999999880791,true
P010,111,hand,adaptive,1,true,inflate_width,Triggered: RT p75=1154ms, err_burst=1,8,0,1138.399999976158,true
P010,112,hand,adaptive,1,true,inflate_width,Triggered: RT p75=1154ms, err_burst=1,8,0,1016,true
P010,113,hand,adaptive,1,true,inflate_width,Triggered: RT p75=1154ms, err_burst=1,8,0,1672.899999976158,true
P010,114,hand,adaptive,1,true,inflate_width,Triggered: RT p75=1154ms, err_burst=1,8,0,1347.5,false
P010,115,hand,adaptive,1,true,inflate_width,Triggered: RT p75=1154ms, err_burst=1,8,0,1360.5999999642372,true
P010,116,hand,adaptive,1,true,inflate_width,Triggered: RT p75=1154ms, err_burst=1,8,0,1263.800000011921,true
P010,117,hand,adaptive,1,true,inflate_width,Triggered: RT p75=1154ms, err_burst=1,8,0,701.6000000238419,true
P010,118,hand,adaptive,1,true,inflate_width,Triggered: RT p75=1154ms, err_burst=1,8,0,1032.600000023842,false
P010,119,hand,adaptive,1,true,inflate_width,Triggered: RT p75=1154ms, err_burst=1,8,0,858.3999999761581,true
P010,120,hand,adaptive,1,true,inflate_width,Triggered: RT p75=1154ms, err_burst=1,8,0,837.9000000357628,true
P010,161,gaze,static,1,true,declutter,Triggered: RT p75=1037ms, err_burst=3,5,0,811.1000000238419,true
P010,162,gaze,static,1,true,declutter,Triggered: RT p75=1037ms, err_burst=3,6,0,1037.4000000357628,true
P010,163,gaze,static,1,true,declutter,Triggered: RT p75=1037ms, err_burst=3,7,0,1132.100000023842,false
P010,164,gaze,static,1,true,declutter,Triggered: RT p75=1031ms, err_burst=3,8,0,1012.1999999880792,true
P010,165,gaze,static,1,true,declutter,Triggered: RT p75=1031ms, err_burst=3,9,0,1411.199999988079,false
P010,166,gaze,static,1,true,declutter,Triggered: RT p75=1098ms, err_burst=3,10,0,1158.300000011921,true
P010,167,gaze,static,1,true,declutter,Triggered: RT p75=1098ms, err_burst=2,11,0,1137,false
P010,168,gaze,static,1,true,declutter,Triggered: RT p75=1166ms, err_burst=1,12,0,1189,true
P010,169,gaze,static,1,true,declutter,Triggered: RT p75=1166ms, err_burst=1,12,0,745.8999999761581,true
P010,170,gaze,static,1,true,declutter,Triggered: RT p75=1166ms, err_burst=1,12,0,756.6999999880791,true
P010,171,gaze,static,1,true,declutter,Triggered: RT p75=1166ms, err_burst=1,12,0,778.5,true
P010,172,gaze,static,1,true,declutter,Triggered: RT p75=1166ms, err_burst=1,12,0,1131.7999999523165,true
P010,219,gaze,adaptive,1,true,declutter,Triggered: RT p75=1094ms, err_burst=2,5,0,770.5999999642372,true
P010,220,gaze,adaptive,1,true,declutter,Triggered: RT p75=1097ms, err_burst=2,6,0,1097.800000011921,true
P010,221,gaze,adaptive,1,true,declutter,Triggered: RT p75=1096ms, err_burst=2,7,0,690,true
P010,222,gaze,adaptive,1,true,declutter,Triggered: RT p75=1096ms, err_burst=2,8,0,995,false
P010,223,gaze,adaptive,1,true,declutter,Triggered: RT p75=1096ms, err_burst=2,9,0,1104.300000011921,false
P010,224,gaze,adaptive,1,true,declutter,Triggered: RT p75=1095ms, err_burst=2,10,0,650.1999999880791,true
P010,225,gaze,adaptive,1,true,declutter,Triggered: RT p75=1095ms, err_burst=2,11,0,702.1999999880791,false
P010,226,gaze,adaptive,1,true,declutter,Triggered: RT p75=1095ms, err_burst=2,12,0,1232.300000011921,false
P010,227,gaze,adaptive,1,true,declutter,Triggered: RT p75=1094ms, err_burst=2,13,0,653.6999999880791,true
P010,228,gaze,adaptive,1,true,declutter,Triggered: RT p75=1094ms, err_burst=2,14,0,1197.9000000357628,false
P010,229,gaze,adaptive,1,true,declutter,Triggered: RT p75=1080ms, err_burst=2,15,0,1019.5,true
P010,230,gaze,adaptive,1,true,declutter,Triggered: RT p75=1096ms, err_burst=2,16,0,1512.100000023842,true
P010,231,gaze,adaptive,1,true,declutter,Triggered: RT p75=1096ms, err_burst=2,17,0,960,false
P010,232,gaze,adaptive,1,true,declutter,Triggered: RT p75=1097ms, err_burst=2,18,0,1176,true
P010,233,gaze,adaptive,1,true,declutter,Triggered: RT p75=1097ms, err_burst=2,19,0,1065,false
P010,234,gaze,adaptive,1,true,declutter,Triggered: RT p75=1097ms, err_burst=2,20,0,718.1000000238419,true
P010,235,gaze,adaptive,1,true,declutter,Triggered: RT p75=1098ms, err_burst=1,21,0,1292.5,true
P011,134,gaze,static,1,true,declutter,Triggered: RT p75=1202ms, err_burst=1,5,0,1424.9000000953674,true
P011,135,gaze,static,1,true,declutter,Triggered: RT p75=1269ms, err_burst=1,6,0,1633,true
P011,136,gaze,static,1,true,declutter,Triggered: RT p75=1269ms, err_burst=1,6,0,1103.1999998092651,true
P011,137,gaze,static,1,true,declutter,Triggered: RT p75=1269ms, err_burst=1,6,0,1810.4000000953672,true
P011,138,gaze,static,1,true,declutter,Triggered: RT p75=1269ms, err_burst=1,6,0,1519.1999998092651,true
P011,139,gaze,static,1,true,declutter,Triggered: RT p75=1269ms, err_burst=1,6,0,1235.8999998569489,true
P011,140,gaze,static,1,true,declutter,Triggered: RT p75=1269ms, err_burst=1,6,0,1902.7000000476835,true
P011,141,gaze,static,1,true,declutter,Triggered: RT p75=1269ms, err_burst=1,6,0,1515.1000001430511,true
P011,142,gaze,static,1,true,declutter,Triggered: RT p75=1269ms, err_burst=1,6,0,941.0999999046326,true
P011,143,gaze,static,1,true,declutter,Triggered: RT p75=1269ms, err_burst=1,6,0,1181.5,true
P011,144,gaze,static,1,true,declutter,Triggered: RT p75=1269ms, err_burst=1,6,0,1437.4000000953674,true
P011,145,gaze,static,1,true,declutter,Triggered: RT p75=1269ms, err_burst=1,6,0,179,false
P011,146,gaze,static,1,true,declutter,Triggered: RT p75=1269ms, err_burst=1,6,0,992,true
P011,147,gaze,static,1,true,declutter,Triggered: RT p75=1269ms, err_burst=1,6,0,1396.5,true
P011,148,gaze,static,1,true,declutter,Triggered: RT p75=1269ms, err_burst=1,6,0,1041.0999999046326,true
P011,149,gaze,static,1,true,declutter,Triggered: RT p75=1269ms, err_burst=1,6,0,1411.5,true
P011,150,gaze,static,1,true,declutter,Triggered: RT p75=1269ms, err_burst=1,6,0,1618.4000000953674,false
P011,151,gaze,static,1,true,declutter,Triggered: RT p75=1269ms, err_burst=1,6,0,1288.6999998092651,true
P011,152,gaze,static,1,true,declutter,Triggered: RT p75=1269ms, err_burst=1,6,0,1414.6000001430511,true
P011,153,gaze,static,1,true,declutter,Triggered: RT p75=1269ms, err_burst=1,6,0,1421.5999999046326,true
P011,154,gaze,static,1,true,declutter,Triggered: RT p75=1269ms, err_burst=1,6,0,1515.5,true
P011,182,gaze,adaptive,1,true,declutter,Triggered: RT p75=1269ms, err_burst=1,6,0,1963.0999999046328,true
P011,183,gaze,adaptive,1,true,declutter,Triggered: RT p75=1453ms, err_burst=1,5,0,2299.199999809265,true
P011,184,gaze,adaptive,1,true,declutter,Triggered: RT p75=1453ms, err_burst=1,5,0,1164,true
P011,185,gaze,adaptive,1,true,declutter,Triggered: RT p75=1453ms, err_burst=1,5,0,1067.1000001430511,true
P011,186,gaze,adaptive,1,true,declutter,Triggered: RT p75=1453ms, err_burst=1,5,0,1644,true
P011,187,gaze,adaptive,1,true,declutter,Triggered: RT p75=1453ms, err_burst=1,5,0,835.7999999523163,true
P011,188,gaze,adaptive,1,true,declutter,Triggered: RT p75=1453ms, err_burst=1,5,0,797.2999999523163,true
P011,189,gaze,adaptive,1,true,declutter,Triggered: RT p75=1453ms, err_burst=1,5,0,1002.2999999523164,true
P011,190,gaze,adaptive,1,true,declutter,Triggered: RT p75=1453ms, err_burst=1,5,0,1081.5999999046326,true
P011,191,gaze,adaptive,1,true,declutter,Triggered: RT p75=1453ms, err_burst=1,5,0,1618.2000000476835,true
P011,192,gaze,adaptive,1,true,declutter,Triggered: RT p75=1453ms, err_burst=1,5,0,940.0999999046326,true
P011,193,gaze,adaptive,1,true,declutter,Triggered: RT p75=1453ms, err_burst=1,5,0,1395.2000000476835,true
P011,194,gaze,adaptive,1,true,declutter,Triggered: RT p75=1453ms, err_burst=1,5,0,1174.9000000953674,true
P011,195,gaze,adaptive,1,true,declutter,Triggered: RT p75=1453ms, err_burst=1,5,0,822.2999999523163,true
P011,196,gaze,adaptive,1,true,declutter,Triggered: RT p75=1453ms, err_burst=1,5,0,1519.1000001430511,true
P011,197,gaze,adaptive,1,true,declutter,Triggered: RT p75=1453ms, err_burst=1,5,0,1007.1999998092653,true
P011,198,gaze,adaptive,1,true,declutter,Triggered: RT p75=1453ms, err_burst=1,5,0,1072.5,true
P011,199,gaze,adaptive,1,true,declutter,Triggered: RT p75=1453ms, err_burst=1,5,0,1389.5999999046326,true
P011,200,gaze,adaptive,1,true,declutter,Triggered: RT p75=1453ms, err_burst=1,5,0,985.3999998569489,true
P012,24,hand,adaptive,1,true,inflate_width,Triggered: RT p75=1569ms, err_burst=1,5,0,1778.89999999851,true
P012,25,hand,adaptive,1,true,inflate_width,Triggered: RT p75=1587ms, err_burst=1,6,0,1625.9000000059605,true
P012,26,hand,adaptive,1,true,inflate_width,Triggered: RT p75=1626ms, err_burst=0,7,0,2435.6999999955297,true
P012,27,hand,adaptive,1,true,inflate_width,Triggered: RT p75=1626ms, err_burst=0,7,0,1009,true
P012,28,hand,adaptive,1,true,inflate_width,Triggered: RT p75=1626ms, err_burst=0,7,0,971.5,true
P012,29,hand,adaptive,1,true,inflate_width,Triggered: RT p75=1626ms, err_burst=0,7,0,1949.89999999851,true
P012,30,hand,adaptive,1,true,inflate_width,Triggered: RT p75=1626ms, err_burst=0,7,0,1858.6999999955297,true
P012,31,hand,adaptive,1,true,inflate_width,Triggered: RT p75=1626ms, err_burst=0,7,0,1825.0999999940395,true
P012,32,hand,adaptive,1,true,inflate_width,Triggered: RT p75=1626ms, err_burst=0,7,0,1116.60000000149,true
P012,33,hand,adaptive,1,true,inflate_width,Triggered: RT p75=1626ms, err_burst=0,7,0,1220.89999999851,true
P012,34,hand,adaptive,1,true,inflate_width,Triggered: RT p75=1626ms, err_burst=0,7,0,1270,true
P012,35,hand,adaptive,1,true,inflate_width,Triggered: RT p75=1626ms, err_burst=0,7,0,1231.6999999955297,true
P015,51,gaze,adaptive,1,true,declutter,Triggered: RT p75=1259ms, err_burst=2,5,0,1292.100000023842,true
P015,52,gaze,adaptive,1,true,declutter,Triggered: RT p75=1292ms, err_burst=1,6,0,1366.300000011921,true
P015,53,gaze,adaptive,1,true,declutter,Triggered: RT p75=1292ms, err_burst=1,6,0,840.8000000119209,true
P015,54,gaze,adaptive,1,true,declutter,Triggered: RT p75=1292ms, err_burst=1,6,0,1327.199999988079,false
P015,55,gaze,adaptive,1,true,declutter,Triggered: RT p75=1292ms, err_burst=1,6,0,901.600000023842,true
P015,56,gaze,adaptive,1,true,declutter,Triggered: RT p75=1292ms, err_burst=1,6,0,1438.899999976158,false
P015,57,gaze,adaptive,1,true,declutter,Triggered: RT p75=1292ms, err_burst=1,6,0,1499.699999988079,true
P015,58,gaze,adaptive,1,true,declutter,Triggered: RT p75=1292ms, err_burst=1,6,0,996.899999976158,true
P015,59,gaze,adaptive,1,true,declutter,Triggered: RT p75=1292ms, err_burst=1,6,0,1290.800000011921,false
P015,60,gaze,adaptive,1,true,declutter,Triggered: RT p75=1292ms, err_burst=1,6,0,1079.5,false
P015,61,gaze,adaptive,1,true,declutter,Triggered: RT p75=1292ms, err_burst=1,6,0,1333.0999999642372,false
P015,62,gaze,adaptive,1,true,declutter,Triggered: RT p75=1292ms, err_burst=1,6,0,1014.3000000119208,true
P015,63,gaze,adaptive,1,true,declutter,Triggered: RT p75=1292ms, err_burst=1,6,0,1450.7999999523165,true
P015,64,gaze,adaptive,1,true,declutter,Triggered: RT p75=1296ms, err_burst=3,5,0,1008.3000000119208,true
P015,65,gaze,adaptive,1,true,declutter,Triggered: RT p75=1292ms, err_burst=3,6,0,746.5999999642372,true
P015,66,gaze,adaptive,1,true,declutter,Triggered: RT p75=1281ms, err_burst=3,7,0,783.3999999761581,true
P015,67,gaze,adaptive,1,true,declutter,Triggered: RT p75=1270ms, err_burst=3,8,0,1040.699999988079,true
P015,68,gaze,adaptive,1,true,declutter,Triggered: RT p75=1259ms, err_burst=3,9,0,1014.600000023842,true
P015,69,gaze,adaptive,1,true,declutter,Triggered: RT p75=1259ms, err_burst=2,10,0,1724.5999999642372,false
P015,70,gaze,adaptive,1,true,declutter,Triggered: RT p75=1292ms, err_burst=1,11,0,1365.699999988079,true
P015,71,gaze,adaptive,1,true,declutter,Triggered: RT p75=1292ms, err_burst=1,11,0,1254.399999976158,false
P015,72,gaze,adaptive,1,true,declutter,Triggered: RT p75=1292ms, err_burst=1,11,0,1523.4000000357628,true
P015,73,gaze,adaptive,1,true,declutter,Triggered: RT p75=1292ms, err_burst=1,11,0,1194.800000011921,true
P015,74,gaze,static,1,true,declutter,Triggered: RT p75=1292ms, err_burst=1,11,0,4065.5,true
P015,75,gaze,static,1,true,declutter,Triggered: RT p75=1292ms, err_burst=1,11,0,944.6999999880792,true
P015,76,gaze,static,1,true,declutter,Triggered: RT p75=1292ms, err_burst=1,11,0,1226.899999976158,false
P015,77,gaze,static,1,true,declutter,Triggered: RT p75=1292ms, err_burst=1,11,0,972.600000023842,false
P015,78,gaze,static,1,true,declutter,Triggered: RT p75=1292ms, err_burst=1,11,0,1118.699999988079,false
P015,79,gaze,static,1,true,declutter,Triggered: RT p75=1292ms, err_burst=1,11,0,1269.199999988079,true
P015,80,gaze,static,1,true,declutter,Triggered: RT p75=1292ms, err_burst=1,11,0,1766.300000011921,false
P015,81,gaze,static,1,true,declutter,Triggered: RT p75=1300ms, err_burst=3,5,0,1167.800000011921,true
P015,82,gaze,static,1,true,declutter,Triggered: RT p75=1296ms, err_burst=3,6,0,972.0999999642372,true
P015,83,gaze,static,1,true,declutter,Triggered: RT p75=1292ms, err_burst=3,7,0,1224.0999999642372,true
P015,84,gaze,static,1,true,declutter,Triggered: RT p75=1286ms, err_burst=3,8,0,946.8000000119208,true
P015,85,gaze,static,1,true,declutter,Triggered: RT p75=1281ms, err_burst=3,9,0,814.8000000119209,true
P015,86,gaze,static,1,true,declutter,Triggered: RT p75=1281ms, err_burst=2,10,0,1303.2999999523165,false
P015,87,gaze,static,1,true,declutter,Triggered: RT p75=1281ms, err_burst=2,10,0,898.2999999523163,true
P015,88,gaze,static,1,true,declutter,Triggered: RT p75=1281ms, err_burst=2,10,0,1374.399999976158,false
P015,89,gaze,static,1,true,declutter,Triggered: RT p75=1281ms, err_burst=2,10,0,936.6999999880792,false
P015,90,gaze,static,1,true,declutter,Triggered: RT p75=1281ms, err_burst=2,10,0,1270.0999999642372,true
P015,91,gaze,static,1,true,declutter,Triggered: RT p75=1281ms, err_burst=2,10,0,868.5999999642372,true
P015,92,gaze,static,1,true,declutter,Triggered: RT p75=1270ms, err_burst=2,5,0,1071.899999976158,true
P015,93,gaze,static,1,true,declutter,Triggered: RT p75=1269ms, err_burst=2,6,0,935.4000000357628,true
P015,94,gaze,static,1,true,declutter,Triggered: RT p75=1269ms, err_burst=2,7,0,1674.600000023842,false
P015,95,gaze,static,1,true,declutter,Triggered: RT p75=1270ms, err_burst=2,8,0,2296.5,true
P015,96,gaze,static,1,true,declutter,Triggered: RT p75=1270ms, err_burst=2,9,0,986.899999976158,true
P015,97,gaze,static,1,true,declutter,Triggered: RT p75=1270ms, err_burst=2,10,0,1130.5,false
P015,98,gaze,static,1,true,declutter,Triggered: RT p75=1270ms, err_burst=2,11,0,719.5,false
P015,99,gaze,static,1,true,declutter,Triggered: RT p75=1270ms, err_burst=2,12,0,828.3000000119209,true
P015,100,gaze,static,1,true,declutter,Triggered: RT p75=1269ms, err_burst=2,13,0,1098.800000011921,true
P015,182,hand,adaptive,1,true,declutter,Triggered: RT p75=1269ms, err_burst=2,13,0,1004.8000000119208,true
P015,183,hand,adaptive,1,true,declutter,Triggered: RT p75=1269ms, err_burst=2,13,0,1050,true
P015,184,hand,adaptive,1,true,declutter,Triggered: RT p75=1269ms, err_burst=2,13,0,1126.399999976158,true
P015,185,hand,adaptive,1,true,declutter,Triggered: RT p75=1269ms, err_burst=2,13,0,764.3000000119209,true
P015,186,hand,adaptive,1,true,declutter,Triggered: RT p75=1269ms, err_burst=2,13,0,1839.4000000357628,true
P015,187,hand,adaptive,1,true,declutter,Triggered: RT p75=1269ms, err_burst=2,13,0,1504.5,true
P015,188,hand,adaptive,1,true,declutter,Triggered: RT p75=1269ms, err_burst=2,13,0,981.1999999880792,false
P015,189,hand,adaptive,1,true,declutter,Triggered: RT p75=1269ms, err_burst=2,13,0,1040.199999988079,true
P015,190,hand,adaptive,1,true,declutter,Triggered: RT p75=1269ms, err_burst=2,13,0,1324.199999988079,true
P015,191,hand,adaptive,1,true,declutter,Triggered: RT p75=1269ms, err_burst=2,13,0,1098,true
P015,192,hand,adaptive,1,true,declutter,Triggered: RT p75=1269ms, err_burst=2,13,0,1424.100000023842,true
P015,193,hand,adaptive,1,true,declutter,Triggered: RT p75=1269ms, err_burst=2,13,0,1419.2999999523165,false
P015,194,hand,adaptive,1,true,declutter,Triggered: RT p75=1269ms, err_burst=2,13,0,1132.0999999642372,true
P015,195,hand,adaptive,1,true,declutter,Triggered: RT p75=1269ms, err_burst=2,13,0,1042,true
P015,196,hand,adaptive,1,true,declutter,Triggered: RT p75=1269ms, err_burst=2,13,0,1174.399999976158,true
P015,197,hand,adaptive,1,true,declutter,Triggered: RT p75=1269ms, err_burst=2,13,0,775.8000000119209,true
P015,228,hand,static,1,true,inflate_width,Triggered: RT p75=1353ms, err_burst=2,5,0,1534.2999999523165,true
P015,229,hand,static,1,true,inflate_width,Triggered: RT p75=1352ms, err_burst=2,6,0,1330.100000023842,true
P015,230,hand,static,1,true,inflate_width,Triggered: RT p75=1352ms, err_burst=2,7,0,1333.100000023842,true
P015,231,hand,static,1,true,inflate_width,Triggered: RT p75=1351ms, err_burst=2,8,0,1225.300000011921,true
P015,232,hand,static,1,true,inflate_width,Triggered: RT p75=1347ms, err_burst=2,9,0,1060,true
P015,233,hand,static,1,true,inflate_width,Triggered: RT p75=1342ms, err_burst=2,10,0,1238.7999999523165,true
P015,234,hand,static,1,true,inflate_width,Triggered: RT p75=1342ms, err_burst=2,10,0,695,true
P015,235,hand,static,1,true,inflate_width,Triggered: RT p75=1342ms, err_burst=2,10,0,1192.899999976158,true
P016,30,gaze,adaptive,1,true,declutter,Triggered: RT p75=983ms, err_burst=2,5,0,913.8000000044703,false
P016,31,gaze,adaptive,1,true,declutter,Triggered: RT p75=980ms, err_burst=2,6,0,797.8999999985099,true
P016,32,gaze,adaptive,1,true,declutter,Triggered: RT p75=980ms, err_burst=2,7,0,958.89999999851,false
P016,33,gaze,adaptive,1,true,declutter,Triggered: RT p75=978ms, err_burst=2,8,0,802.7999999970198,true
P016,34,gaze,adaptive,1,true,declutter,Triggered: RT p75=967ms, err_burst=2,9,0,775,true
P016,35,gaze,adaptive,1,true,declutter,Triggered: RT p75=957ms, err_burst=2,10,0,919,true
P016,36,gaze,adaptive,1,true,declutter,Triggered: RT p75=946ms, err_burst=2,11,0,696.8000000044703,true
P016,37,gaze,adaptive,1,true,declutter,Triggered: RT p75=935ms, err_burst=2,12,0,759.6999999955297,true
P016,38,gaze,adaptive,1,true,declutter,Triggered: RT p75=935ms, err_burst=2,13,0,953.2999999970198,false
P016,39,gaze,adaptive,1,true,declutter,Triggered: RT p75=935ms, err_burst=2,13,0,863.7999999970198,true
P016,40,gaze,adaptive,1,true,declutter,Triggered: RT p75=935ms, err_burst=2,13,0,815.1000000014901,false
P016,41,gaze,adaptive,1,true,declutter,Triggered: RT p75=935ms, err_burst=2,13,0,852.2000000029802,true
P016,42,gaze,adaptive,1,true,declutter,Triggered: RT p75=935ms, err_burst=2,13,0,866.6000000014901,false
P016,43,gaze,adaptive,1,true,declutter,Triggered: RT p75=935ms, err_burst=2,13,0,996.7000000029802,true
P016,44,gaze,adaptive,1,true,declutter,Triggered: RT p75=935ms, err_burst=2,13,0,789.6999999955297,true
P016,45,gaze,adaptive,1,true,declutter,Triggered: RT p75=935ms, err_burst=2,13,0,842.8000000044703,true
P016,46,gaze,adaptive,1,true,declutter,Triggered: RT p75=935ms, err_burst=2,13,0,870.2999999970198,true
P016,155,hand,adaptive,1,true,declutter,Triggered: RT p75=935ms, err_burst=2,13,0,824.3000000044703,true
P016,156,hand,adaptive,1,true,declutter,Triggered: RT p75=935ms, err_burst=2,13,0,707.1000000014901,true
P016,157,hand,adaptive,1,true,declutter,Triggered: RT p75=935ms, err_burst=2,13,0,1080.10000000149,true
P016,158,hand,adaptive,1,true,declutter,Triggered: RT p75=935ms, err_burst=2,13,0,1193.89999999851,true
P016,159,hand,adaptive,1,true,declutter,Triggered: RT p75=935ms, err_burst=2,13,0,768.7000000029802,true
P016,160,hand,adaptive,1,true,declutter,Triggered: RT p75=935ms, err_burst=2,13,0,1053.10000000149,true
P016,161,hand,adaptive,1,true,declutter,Triggered: RT p75=935ms, err_burst=2,13,0,1076.5,true
P016,162,hand,adaptive,1,true,declutter,Triggered: RT p75=935ms, err_burst=2,13,0,1019.39999999851,true
P017,78,gaze,adaptive,1,true,declutter,Triggered: RT p75=948ms, err_burst=2,5,0,816.4000000000233,true
P017,79,gaze,adaptive,1,true,declutter,Triggered: RT p75=948ms, err_burst=2,6,0,699.9000000000233,false
P017,80,gaze,adaptive,1,true,declutter,Triggered: RT p75=948ms, err_burst=2,6,0,595.5,true
P017,81,gaze,adaptive,1,true,declutter,Triggered: RT p75=948ms, err_burst=2,6,0,585.1000000000931,true
P017,82,gaze,adaptive,1,true,declutter,Triggered: RT p75=948ms, err_burst=2,6,0,689.1999999999534,true
P017,83,gaze,adaptive,1,true,declutter,Triggered: RT p75=948ms, err_burst=2,6,0,767.9000000000233,true
P017,144,hand,adaptive,1,true,inflate_width,Triggered: RT p75=965ms, err_burst=0,5,0,987.9000000000232,true
P017,145,hand,adaptive,1,true,inflate_width,Triggered: RT p75=965ms, err_burst=0,5,0,906.1999999999534,true
P017,146,hand,adaptive,1,true,inflate_width,Triggered: RT p75=965ms, err_burst=0,5,0,650.2000000000698,true
P017,147,hand,adaptive,1,true,inflate_width,Triggered: RT p75=965ms, err_burst=0,5,0,914.7999999999302,true
P017,148,hand,adaptive,1,true,inflate_width,Triggered: RT p75=965ms, err_burst=0,5,0,1514.3000000000466,true
P017,149,hand,adaptive,1,true,inflate_width,Triggered: RT p75=965ms, err_burst=0,5,0,625,true
P017,150,hand,adaptive,1,true,inflate_width,Triggered: RT p75=965ms, err_burst=0,5,0,802,true
P017,151,hand,adaptive,1,true,inflate_width,Triggered: RT p75=965ms, err_burst=0,5,0,873,true
P017,152,hand,adaptive,1,true,inflate_width,Triggered: RT p75=965ms, err_burst=0,5,0,861,true
P018,105,hand,adaptive,1,true,inflate_width,Triggered: RT p75=925ms, err_burst=0,5,0,1008.5,true
P018,106,hand,adaptive,1,true,inflate_width,Triggered: RT p75=925ms, err_burst=0,5,0,843.9000000953674,true
P018,107,hand,adaptive,1,true,inflate_width,Triggered: RT p75=925ms, err_burst=0,5,0,719.2000002861023,true
P018,108,hand,adaptive,1,true,inflate_width,Triggered: RT p75=925ms, err_burst=0,5,0,929.8999996185304,true
P018,109,hand,adaptive,1,true,inflate_width,Triggered: RT p75=925ms, err_burst=0,5,0,724.8999996185303,true
P018,110,hand,adaptive,1,true,inflate_width,Triggered: RT p75=925ms, err_burst=0,5,0,765.3000001907349,true
P018,111,hand,adaptive,1,true,inflate_width,Triggered: RT p75=925ms, err_burst=0,5,0,666,true
P018,112,hand,adaptive,1,true,inflate_width,Triggered: RT p75=925ms, err_burst=0,5,0,959.7000002861024,true
P018,113,hand,adaptive,1,true,inflate_width,Triggered: RT p75=925ms, err_burst=0,5,0,871.7999997138977,true
P018,114,hand,adaptive,1,true,inflate_width,Triggered: RT p75=925ms, err_burst=0,5,0,858.7999997138977,true
P018,115,hand,adaptive,1,true,inflate_width,Triggered: RT p75=925ms, err_burst=0,5,0,693.0999999046326,true
P018,116,hand,adaptive,1,true,inflate_width,Triggered: RT p75=925ms, err_burst=0,5,0,783.5,true
P018,210,gaze,adaptive,1,true,declutter,Triggered: RT p75=900ms, err_burst=2,5,0,1169.5,false
P018,211,gaze,adaptive,1,true,declutter,Triggered: RT p75=900ms, err_burst=3,6,0,777.3999996185303,false
P018,212,gaze,adaptive,1,true,declutter,Triggered: RT p75=900ms, err_burst=4,7,0,1115.5,false
P018,213,gaze,adaptive,1,true,declutter,Triggered: RT p75=894ms, err_burst=4,8,0,745.5999999046326,true
P018,214,gaze,adaptive,1,true,declutter,Triggered: RT p75=894ms, err_burst=4,9,0,1032.9000000953674,false
P018,215,gaze,adaptive,1,true,declutter,Triggered: RT p75=911ms, err_burst=4,10,0,957.0999999046326,true
P018,216,gaze,adaptive,1,true,declutter,Triggered: RT p75=906ms, err_burst=4,11,0,613.2999997138977,true
P018,217,gaze,adaptive,1,true,declutter,Triggered: RT p75=917ms, err_burst=4,12,0,1016.8000001907347,true
P018,218,gaze,adaptive,1,true,declutter,Triggered: RT p75=917ms, err_burst=4,13,0,607.5,true
P018,219,gaze,adaptive,1,true,declutter,Triggered: RT p75=911ms, err_burst=3,14,0,796.7999997138977,true
P018,220,gaze,adaptive,1,true,declutter,Triggered: RT p75=906ms, err_burst=2,15,0,602.5999999046326,true
P018,221,gaze,adaptive,1,true,declutter,Triggered: RT p75=917ms, err_burst=1,16,0,1194.4000000953674,true
P018,222,gaze,adaptive,1,true,declutter,Triggered: RT p75=918ms, err_burst=1,17,0,952.3000001907347,true
P018,223,gaze,adaptive,1,true,declutter,Triggered: RT p75=944ms, err_burst=1,18,0,994.8000001907347,true
P018,224,gaze,adaptive,1,true,declutter,Triggered: RT p75=944ms, err_burst=1,18,0,640.8999996185303,true
P018,225,gaze,adaptive,1,true,declutter,Triggered: RT p75=944ms, err_burst=1,18,0,1115.8000001907349,true
P018,226,gaze,adaptive,1,true,declutter,Triggered: RT p75=944ms, err_burst=1,18,0,819.5999999046326,true
P018,227,gaze,adaptive,1,true,declutter,Triggered: RT p75=944ms, err_burst=1,18,0,856.0999999046326,false
P018,228,gaze,adaptive,1,true,declutter,Triggered: RT p75=944ms, err_burst=1,18,0,930.7999997138976,false
P018,229,gaze,adaptive,1,true,declutter,Triggered: RT p75=944ms, err_burst=1,18,0,788.4000000953674,true
P018,230,gaze,adaptive,1,true,declutter,Triggered: RT p75=944ms, err_burst=1,18,0,582.8000001907349,true
P018,231,gaze,adaptive,1,true,declutter,Triggered: RT p75=944ms, err_burst=1,18,0,893.4000000953674,true
P018,232,gaze,adaptive,1,true,declutter,Triggered: RT p75=918ms, err_burst=2,5,0,877.7999997138977,true
P018,233,gaze,adaptive,1,true,declutter,Triggered: RT p75=918ms, err_burst=2,6,0,644.8999996185303,true
P018,234,gaze,adaptive,1,true,declutter,Triggered: RT p75=917ms, err_burst=2,7,0,621.1999998092651,true
P018,235,gaze,adaptive,1,true,declutter,Triggered: RT p75=917ms, err_burst=2,8,0,781,true
P019,188,gaze,adaptive,1,true,declutter,Triggered: RT p75=1236ms, err_burst=2,5,0,1639,true
P019,189,gaze,adaptive,1,true,declutter,Triggered: RT p75=1238ms, err_burst=2,6,0,1341.6999999955297,false
P019,190,gaze,adaptive,1,true,declutter,Triggered: RT p75=1228ms, err_burst=2,7,0,695.1000000014901,true
P019,191,gaze,adaptive,1,true,declutter,Triggered: RT p75=1228ms, err_burst=2,8,0,805.7000000029802,true
P019,192,gaze,adaptive,1,true,declutter,Triggered: RT p75=1221ms, err_burst=2,9,0,1051.89999999851,false
P019,193,gaze,adaptive,1,true,declutter,Triggered: RT p75=1221ms, err_burst=2,10,0,638.6000000014901,true
P019,194,gaze,adaptive,1,true,declutter,Triggered: RT p75=1221ms, err_burst=2,11,0,1324.7000000029802,true
P019,195,gaze,adaptive,1,true,declutter,Triggered: RT p75=1221ms, err_burst=2,12,0,1050.60000000149,true
P019,196,gaze,adaptive,1,true,declutter,Triggered: RT p75=1221ms, err_burst=2,12,0,681.1999999955297,true
P019,197,gaze,adaptive,1,true,declutter,Triggered: RT p75=1221ms, err_burst=2,12,0,1213.60000000149,true
P019,198,gaze,adaptive,1,true,declutter,Triggered: RT p75=1221ms, err_burst=2,12,0,808.6000000014901,true
P019,199,gaze,adaptive,1,true,declutter,Triggered: RT p75=1221ms, err_burst=2,12,0,1273.5,false
P019,200,gaze,adaptive,1,true,declutter,Triggered: RT p75=1221ms, err_burst=2,12,0,885.5,true
P019,201,gaze,adaptive,1,true,declutter,Triggered: RT p75=1221ms, err_burst=2,12,0,1299.39999999851,false
P019,202,gaze,adaptive,1,true,declutter,Triggered: RT p75=1221ms, err_burst=2,12,0,1276.7000000029802,true
P019,203,gaze,adaptive,1,true,declutter,Triggered: RT p75=1221ms, err_burst=2,12,0,1305.7999999970198,true
P019,204,gaze,adaptive,1,true,declutter,Triggered: RT p75=1221ms, err_burst=2,12,0,1887,true
P019,205,gaze,adaptive,1,true,declutter,Triggered: RT p75=1241ms, err_burst=1,5,0,1357.5,true
P019,206,gaze,adaptive,1,true,declutter,Triggered: RT p75=1241ms, err_burst=1,5,0,873.7999999970198,true
P019,207,gaze,adaptive,1,true,declutter,Triggered: RT p75=1241ms, err_burst=1,5,0,1394.8000000044703,false
P019,208,gaze,adaptive,1,true,declutter,Triggered: RT p75=1241ms, err_burst=1,5,0,871.6999999955297,true
P022,34,gaze,static,1,true,declutter,Triggered: RT p75=1236ms, err_burst=2,5,0,1026,true
P022,35,gaze,static,1,true,declutter,Triggered: RT p75=1236ms, err_burst=2,6,0,858,false
P022,36,gaze,static,1,true,declutter,Triggered: RT p75=1236ms, err_burst=2,7,0,1304,false
P022,64,hand,static,1,true,declutter,Triggered: RT p75=1236ms, err_burst=2,7,0,1034,true
P022,65,hand,static,1,true,declutter,Triggered: RT p75=1236ms, err_burst=2,7,0,1191,true
P022,66,hand,static,1,true,declutter,Triggered: RT p75=1236ms, err_burst=2,7,0,1507,true
P022,67,hand,static,1,true,declutter,Triggered: RT p75=1236ms, err_burst=2,7,0,836,true
P022,68,hand,static,1,true,declutter,Triggered: RT p75=1236ms, err_burst=2,7,0,956,true
P022,69,hand,static,1,true,declutter,Triggered: RT p75=1236ms, err_burst=2,7,0,1098,true
P022,70,hand,static,1,true,declutter,Triggered: RT p75=1236ms, err_burst=2,7,0,1307,true
P022,71,hand,static,1,true,declutter,Triggered: RT p75=1236ms, err_burst=2,7,0,1230,true
P022,72,hand,static,1,true,declutter,Triggered: RT p75=1236ms, err_burst=2,7,0,928,true
P022,73,hand,static,1,true,declutter,Triggered: RT p75=1236ms, err_burst=2,7,0,1189,true
P022,74,hand,static,1,true,declutter,Triggered: RT p75=1236ms, err_burst=2,7,0,1164,true
P022,75,hand,static,1,true,declutter,Triggered: RT p75=1236ms, err_burst=2,7,0,789,true
P022,76,hand,static,1,true,declutter,Triggered: RT p75=1236ms, err_burst=2,7,0,786,true
P022,77,hand,static,1,true,declutter,Triggered: RT p75=1236ms, err_burst=2,7,0,1201,true
P022,78,hand,static,1,true,declutter,Triggered: RT p75=1236ms, err_burst=2,7,0,898,true
P022,79,hand,static,1,true,declutter,Triggered: RT p75=1236ms, err_burst=2,7,0,894,true
P022,80,hand,static,1,true,declutter,Triggered: RT p75=1236ms, err_burst=2,7,0,1262,true
P022,81,hand,static,1,true,declutter,Triggered: RT p75=1236ms, err_burst=2,7,0,927,true
P022,82,hand,static,1,true,declutter,Triggered: RT p75=1236ms, err_burst=2,7,0,1447,true
P022,83,hand,static,1,true,declutter,Triggered: RT p75=1236ms, err_burst=2,7,0,840,true
P022,84,hand,static,1,true,declutter,Triggered: RT p75=1236ms, err_burst=2,7,0,933,true
P022,85,hand,static,1,true,declutter,Triggered: RT p75=1236ms, err_burst=2,7,0,1192,true
P022,86,hand,static,1,true,declutter,Triggered: RT p75=1236ms, err_burst=2,7,0,1336,true
P022,87,hand,static,1,true,declutter,Triggered: RT p75=1236ms, err_burst=2,7,0,1284,true
P022,88,hand,static,1,true,declutter,Triggered: RT p75=1236ms, err_burst=2,7,0,1421,true
P022,89,hand,static,1,true,declutter,Triggered: RT p75=1236ms, err_burst=2,7,0,1143,true
P022,90,hand,static,1,true,declutter,Triggered: RT p75=1236ms, err_burst=2,7,0,1546,true
P022,91,gaze,adaptive,1,true,declutter,Triggered: RT p75=1307ms, err_burst=1,8,0,4186,false
P022,92,gaze,adaptive,1,true,declutter,Triggered: RT p75=1307ms, err_burst=1,8,0,1171,true
P022,93,gaze,adaptive,1,true,declutter,Triggered: RT p75=1307ms, err_burst=1,8,0,1626,true
P022,94,gaze,adaptive,1,true,declutter,Triggered: RT p75=1307ms, err_burst=1,8,0,1274,true
P022,95,gaze,adaptive,1,true,declutter,Triggered: RT p75=1307ms, err_burst=1,8,0,1408,true
P022,96,gaze,adaptive,1,true,declutter,Triggered: RT p75=1307ms, err_burst=1,8,0,944,true
P022,97,gaze,adaptive,1,true,declutter,Triggered: RT p75=1307ms, err_burst=1,8,0,985,true
P022,98,gaze,adaptive,1,true,declutter,Triggered: RT p75=1307ms, err_burst=1,8,0,1544,true
P022,99,gaze,adaptive,1,true,declutter,Triggered: RT p75=1307ms, err_burst=1,8,0,909,true
P022,100,gaze,adaptive,1,true,declutter,Triggered: RT p75=1307ms, err_burst=1,8,0,1599,true
P022,101,gaze,adaptive,1,true,declutter,Triggered: RT p75=1307ms, err_burst=1,8,0,1160,true
P022,102,gaze,adaptive,1,true,declutter,Triggered: RT p75=1307ms, err_burst=1,8,0,1615,true
P022,103,gaze,adaptive,1,true,declutter,Triggered: RT p75=1307ms, err_burst=1,8,0,1202,true
P022,104,gaze,adaptive,1,true,declutter,Triggered: RT p75=1307ms, err_burst=1,8,0,1621,false
P022,105,gaze,adaptive,1,true,declutter,Triggered: RT p75=1307ms, err_burst=1,8,0,1046,true
P022,106,gaze,adaptive,1,true,declutter,Triggered: RT p75=1307ms, err_burst=1,8,0,1399,true
P022,107,gaze,adaptive,1,true,declutter,Triggered: RT p75=1307ms, err_burst=1,8,0,1525,true
P022,108,gaze,adaptive,1,true,declutter,Triggered: RT p75=1307ms, err_burst=1,8,0,1199,true
P022,109,gaze,adaptive,1,true,declutter,Triggered: RT p75=1307ms, err_burst=1,8,0,1228,true
P022,110,gaze,adaptive,1,true,declutter,Triggered: RT p75=1307ms, err_burst=1,8,0,1241,true
P022,111,gaze,adaptive,1,true,declutter,Triggered: RT p75=1307ms, err_burst=1,8,0,787,true
P023,51,gaze,adaptive,1,true,declutter,Triggered: RT p75=1440ms, err_burst=1,5,0,1773.6999999955297,true
P023,52,gaze,adaptive,1,true,declutter,Triggered: RT p75=1455ms, err_burst=1,6,0,1564.89999999851,true
P023,53,gaze,adaptive,1,true,declutter,Triggered: RT p75=1455ms, err_burst=1,6,0,1300.0999999940395,true
P023,54,gaze,adaptive,1,true,declutter,Triggered: RT p75=1455ms, err_burst=1,6,0,1708.1999999955297,true
P023,55,gaze,adaptive,1,true,declutter,Triggered: RT p75=1455ms, err_burst=1,6,0,1633.2999999970198,true
P023,56,gaze,adaptive,1,true,declutter,Triggered: RT p75=1455ms, err_burst=1,6,0,1634.5,false
P023,57,gaze,adaptive,1,true,declutter,Triggered: RT p75=1455ms, err_burst=1,6,0,1484.5,false
P023,58,gaze,adaptive,1,true,declutter,Triggered: RT p75=1463ms, err_burst=3,5,0,1374.7000000029802,false
P023,59,gaze,adaptive,1,true,declutter,Triggered: RT p75=1460ms, err_burst=3,6,0,1459.60000000149,true
P023,60,gaze,adaptive,1,true,declutter,Triggered: RT p75=1459ms, err_burst=3,7,0,911.7999999970198,true
P023,61,gaze,adaptive,1,true,declutter,Triggered: RT p75=1458ms, err_burst=3,8,0,1233.10000000149,true
P023,62,gaze,adaptive,1,true,declutter,Triggered: RT p75=1458ms, err_burst=3,9,0,1074.89999999851,true
P023,63,gaze,adaptive,1,true,declutter,Triggered: RT p75=1457ms, err_burst=3,10,0,1085.8000000044703,true
P023,64,gaze,adaptive,1,true,declutter,Triggered: RT p75=1456ms, err_burst=3,11,0,961.5,true
P023,65,gaze,adaptive,1,true,declutter,Triggered: RT p75=1456ms, err_burst=3,12,0,1411,false
P023,66,gaze,adaptive,1,true,declutter,Triggered: RT p75=1456ms, err_burst=2,13,0,1027.7999999970198,true
P023,67,gaze,adaptive,1,true,declutter,Triggered: RT p75=1456ms, err_burst=2,13,0,920.2000000029802,true
P023,68,gaze,adaptive,1,true,declutter,Triggered: RT p75=1456ms, err_burst=2,13,0,1574.89999999851,true
P023,69,gaze,adaptive,1,true,declutter,Triggered: RT p75=1456ms, err_burst=2,13,0,828.5,true
P023,70,gaze,adaptive,1,true,declutter,Triggered: RT p75=1456ms, err_burst=2,13,0,737.3999999985099,true
P023,71,gaze,adaptive,1,true,declutter,Triggered: RT p75=1456ms, err_burst=2,13,0,985.10000000149,true
P023,72,gaze,adaptive,1,true,declutter,Triggered: RT p75=1456ms, err_burst=2,13,0,1121.0999999940395,true
P023,73,gaze,adaptive,1,true,declutter,Triggered: RT p75=1456ms, err_burst=2,13,0,1506.10000000149,false
P023,74,gaze,static,1,true,declutter,Triggered: RT p75=1456ms, err_burst=2,13,0,1267.7999999970198,false
P023,75,gaze,static,1,true,declutter,Triggered: RT p75=1456ms, err_burst=2,13,0,1026.89999999851,true
P023,76,gaze,static,1,true,declutter,Triggered: RT p75=1456ms, err_burst=2,13,0,1280.7000000029802,false
P023,77,gaze,static,1,true,declutter,Triggered: RT p75=1456ms, err_burst=2,5,0,1505.60000000149,true
P023,78,gaze,static,1,true,declutter,Triggered: RT p75=1456ms, err_burst=2,6,0,1377.60000000149,true
P023,79,gaze,static,1,true,declutter,Triggered: RT p75=1455ms, err_burst=2,7,0,1302.5,true
P023,80,gaze,static,1,true,declutter,Triggered: RT p75=1450ms, err_burst=2,8,0,847.2999999970198,true
P023,81,gaze,static,1,true,declutter,Triggered: RT p75=1450ms, err_burst=2,9,0,1187.7000000029802,false
P023,82,gaze,static,1,true,declutter,Triggered: RT p75=1445ms, err_burst=2,10,0,1167.2000000029802,true
P023,83,gaze,static,1,true,declutter,Triggered: RT p75=1445ms, err_burst=2,10,0,961.89999999851,true
P023,84,gaze,static,1,true,declutter,Triggered: RT p75=1445ms, err_burst=2,10,0,1457.1999999955297,false
P023,85,gaze,static,1,true,declutter,Triggered: RT p75=1445ms, err_burst=2,10,0,825.8999999985099,true
P023,86,gaze,static,1,true,declutter,Triggered: RT p75=1445ms, err_burst=2,10,0,893.5999999940395,true
P023,87,gaze,static,1,true,declutter,Triggered: RT p75=1445ms, err_burst=2,10,0,1319.4000000059605,true
P023,88,gaze,static,1,true,declutter,Triggered: RT p75=1445ms, err_burst=2,10,0,1004.1999999955297,true
P023,98,gaze,static,1,true,declutter,Triggered: RT p75=1363ms, err_burst=2,5,0,1475.2000000029802,false
P023,99,gaze,static,1,true,declutter,Triggered: RT p75=1349ms, err_burst=2,6,0,1214.5,true
P023,100,gaze,static,1,true,declutter,Triggered: RT p75=1407ms, err_burst=2,7,0,1547.1999999955297,true
P023,182,hand,adaptive,1,true,declutter,Triggered: RT p75=1407ms, err_burst=2,7,0,1126.5,true
P023,183,hand,adaptive,1,true,declutter,Triggered: RT p75=1407ms, err_burst=2,7,0,1092.5,true
P023,184,hand,adaptive,1,true,declutter,Triggered: RT p75=1407ms, err_burst=2,7,0,1526.89999999851,true
P023,185,hand,adaptive,1,true,declutter,Triggered: RT p75=1407ms, err_burst=2,7,0,1709.2000000029802,true
P023,186,hand,adaptive,1,true,declutter,Triggered: RT p75=1407ms, err_burst=2,7,0,1276.60000000149,true
P023,187,hand,adaptive,1,true,declutter,Triggered: RT p75=1407ms, err_burst=2,7,0,1009.2999999970198,true
P023,188,hand,adaptive,1,true,declutter,Triggered: RT p75=1407ms, err_burst=2,7,0,1241.39999999851,true
P023,189,hand,adaptive,1,true,declutter,Triggered: RT p75=1407ms, err_burst=2,7,0,1391.39999999851,true
P023,190,hand,adaptive,1,true,declutter,Triggered: RT p75=1407ms, err_burst=2,7,0,1441.1999999955297,true
P023,191,hand,adaptive,1,true,declutter,Triggered: RT p75=1407ms, err_burst=2,7,0,1026.5,true
P023,192,hand,adaptive,1,true,declutter,Triggered: RT p75=1407ms, err_burst=2,7,0,1192.2999999970198,true
P023,193,hand,adaptive,1,true,declutter,Triggered: RT p75=1407ms, err_burst=2,7,0,1258.5999999940395,true
P023,194,hand,adaptive,1,true,declutter,Triggered: RT p75=1407ms, err_burst=2,7,0,1459.89999999851,true
P023,195,hand,adaptive,1,true,declutter,Triggered: RT p75=1407ms, err_burst=2,7,0,894.5,true
P023,196,hand,adaptive,1,true,declutter,Triggered: RT p75=1407ms, err_burst=2,7,0,925.10000000149,true
P023,197,hand,adaptive,1,true,declutter,Triggered: RT p75=1407ms, err_burst=2,7,0,991.7000000029802,true
P023,198,hand,adaptive,1,true,declutter,Triggered: RT p75=1407ms, err_burst=2,7,0,944.5,true
P024,44,gaze,adaptive,1,true,declutter,Triggered: RT p75=1094ms, err_burst=2,5,0,873,true
P024,45,gaze,adaptive,1,true,declutter,Triggered: RT p75=1092ms, err_burst=2,6,0,846.7000000029802,true
P024,46,gaze,adaptive,1,true,declutter,Triggered: RT p75=1092ms, err_burst=2,7,0,708.9000000059605,true
P024,155,hand,adaptive,1,true,declutter,Triggered: RT p75=1092ms, err_burst=2,7,0,963.5999999940396,true
P024,156,hand,adaptive,1,true,declutter,Triggered: RT p75=1092ms, err_burst=2,7,0,938.6000000089408,true
P024,157,hand,adaptive,1,true,declutter,Triggered: RT p75=1092ms, err_burst=2,7,0,760.1000000089407,false
P024,158,hand,adaptive,1,true,declutter,Triggered: RT p75=1092ms, err_burst=2,7,0,837.7000000029802,true
P024,159,hand,adaptive,1,true,declutter,Triggered: RT p75=1092ms, err_burst=2,7,0,800.7999999970198,true
P024,160,hand,adaptive,1,true,declutter,Triggered: RT p75=1092ms, err_burst=2,7,0,1230,false
P024,161,hand,adaptive,1,true,declutter,Triggered: RT p75=1092ms, err_burst=2,7,0,1435.7999999970198,true
P024,162,hand,adaptive,1,true,declutter,Triggered: RT p75=1092ms, err_burst=2,7,0,1233.7999999970198,true
P024,163,hand,adaptive,1,true,declutter,Triggered: RT p75=1092ms, err_burst=2,7,0,1059.8999999910593,true
P024,164,hand,adaptive,1,true,inflate_width,Triggered: RT p75=961ms, err_burst=1,5,0,1366.6000000089407,true
P024,165,hand,adaptive,1,true,inflate_width,Triggered: RT p75=966ms, err_burst=1,6,0,1058.3999999910593,true
P024,166,hand,adaptive,1,true,inflate_width,Triggered: RT p75=966ms, err_burst=1,6,0,893.7999999970198,false
P024,167,hand,adaptive,1,true,inflate_width,Triggered: RT p75=966ms, err_burst=1,6,0,673.9000000059605,true
P024,168,hand,adaptive,1,true,inflate_width,Triggered: RT p75=966ms, err_burst=1,6,0,850.9000000059605,false
P024,169,hand,adaptive,1,true,inflate_width,Triggered: RT p75=966ms, err_burst=1,6,0,896.1999999880791,false
P024,170,hand,adaptive,1,true,inflate_width,Triggered: RT p75=966ms, err_burst=1,6,0,673.0999999940395,false
P024,171,hand,adaptive,1,true,inflate_width,Triggered: RT p75=966ms, err_burst=1,6,0,708.5999999940395,true
P024,172,hand,adaptive,1,true,inflate_width,Triggered: RT p75=966ms, err_burst=1,6,0,1182.1000000089407,true
P024,173,hand,adaptive,1,true,inflate_width,Triggered: RT p75=978ms, err_burst=3,5,0,778,true
P024,174,hand,adaptive,1,true,inflate_width,Triggered: RT p75=968ms, err_burst=3,6,0,673.0999999940395,true
P024,175,hand,adaptive,1,true,inflate_width,Triggered: RT p75=998ms, err_burst=3,7,0,1043.4000000059605,true
P024,176,hand,adaptive,1,true,inflate_width,Triggered: RT p75=988ms, err_burst=3,8,0,774.8999999910593,true
P024,177,hand,adaptive,1,true,inflate_width,Triggered: RT p75=978ms, err_burst=3,9,0,667.6000000089407,true
P024,178,hand,adaptive,1,true,inflate_width,Triggered: RT p75=968ms, err_burst=2,10,0,838.2000000029802,true
P024,179,hand,adaptive,1,true,inflate_width,Triggered: RT p75=988ms, err_burst=1,11,0,994.8999999910592,true
P024,180,hand,adaptive,1,true,inflate_width,Triggered: RT p75=988ms, err_burst=1,11,0,830.7000000029802,true
P024,181,hand,adaptive,1,true,inflate_width,Triggered: RT p75=988ms, err_burst=1,11,0,882.9000000059605,true
P024,182,hand,static,1,true,inflate_width,Triggered: RT p75=988ms, err_burst=1,11,0,914.7999999970198,true
P024,183,hand,static,1,true,inflate_width,Triggered: RT p75=988ms, err_burst=1,11,0,734.2999999970198,true
P024,209,gaze,static,1,true,declutter,Triggered: RT p75=1035ms, err_burst=1,8,0,1673.2000000029802,true
P024,210,gaze,static,1,true,declutter,Triggered: RT p75=1035ms, err_burst=1,8,0,640.7999999970198,true
P024,211,gaze,static,1,true,declutter,Triggered: RT p75=1035ms, err_burst=1,8,0,953.2000000029802,true
P024,212,gaze,static,1,true,declutter,Triggered: RT p75=1035ms, err_burst=1,8,0,948.6000000089408,true
P024,213,gaze,static,1,true,declutter,Triggered: RT p75=1035ms, err_burst=1,8,0,869.6000000089407,true
P025,96,gaze,adaptive,1,true,declutter,Triggered: RT p75=1235ms, err_burst=0,5,0,1386.2000000001865,true
P025,97,gaze,adaptive,1,true,declutter,Triggered: RT p75=1276ms, err_burst=0,6,0,1427.699999999255,true
P025,98,gaze,adaptive,1,true,declutter,Triggered: RT p75=1276ms, err_burst=0,6,0,1242.6000000005588,true
P025,99,gaze,adaptive,1,true,declutter,Triggered: RT p75=1276ms, err_burst=0,6,0,935.2999999998136,true
P025,100,gaze,adaptive,1,true,declutter,Triggered: RT p75=1276ms, err_burst=0,6,0,1485.8999999994412,true
P025,128,hand,adaptive,1,true,declutter,Triggered: RT p75=1276ms, err_burst=0,6,0,1156.7000000001865,true
P025,129,hand,adaptive,1,true,declutter,Triggered: RT p75=1276ms, err_burst=0,6,0,1214.699999999255,true
P025,130,hand,adaptive,1,true,declutter,Triggered: RT p75=1276ms, err_burst=0,6,0,1028.6000000005588,true
P025,131,hand,adaptive,1,true,declutter,Triggered: RT p75=1276ms, err_burst=0,6,0,997.1000000005588,true
P025,189,gaze,static,1,true,declutter,Triggered: RT p75=1677ms, err_burst=2,5,0,919,true
P025,190,gaze,static,1,true,declutter,Triggered: RT p75=1677ms, err_burst=2,6,0,1830.4000000003723,true
P025,191,gaze,static,1,true,declutter,Triggered: RT p75=1677ms, err_burst=2,7,0,1407.5,true
P025,192,gaze,static,1,true,declutter,Triggered: RT p75=1682ms, err_burst=2,8,0,2164.5,true
P025,193,gaze,static,1,true,declutter,Triggered: RT p75=1682ms, err_burst=2,9,0,962.5,true
P025,194,gaze,static,1,true,declutter,Triggered: RT p75=1682ms, err_burst=1,10,0,1845.0999999996277,true
P025,195,gaze,static,1,true,declutter,Triggered: RT p75=1682ms, err_burst=1,10,0,1721,true
P025,196,gaze,static,1,true,declutter,Triggered: RT p75=1682ms, err_burst=1,10,0,1058.5999999996277,true
P025,197,gaze,static,1,true,declutter,Triggered: RT p75=1682ms, err_burst=1,10,0,1680.7000000001865,true
P025,198,gaze,static,1,true,declutter,Triggered: RT p75=1682ms, err_burst=1,10,0,1885.300000000745,true
P025,199,gaze,static,1,true,declutter,Triggered: RT p75=1682ms, err_burst=1,10,0,1531.6000000005588,true
P025,200,gaze,static,1,true,declutter,Triggered: RT p75=1682ms, err_burst=1,10,0,1980.5,true
P025,201,gaze,static,1,true,declutter,Triggered: RT p75=1682ms, err_burst=1,10,0,944.9000000003724,true
P025,202,gaze,static,1,true,declutter,Triggered: RT p75=1682ms, err_burst=1,10,0,1856.2000000001865,true
P025,203,gaze,static,1,true,declutter,Triggered: RT p75=1682ms, err_burst=1,10,0,1552.9000000003723,true
P025,204,gaze,static,1,true,declutter,Triggered: RT p75=1682ms, err_burst=1,10,0,948.3999999994412,true
P025,205,gaze,static,1,true,declutter,Triggered: RT p75=1682ms, err_burst=1,10,0,937.6999999992548,true
P025,206,gaze,static,1,true,declutter,Triggered: RT p75=1682ms, err_burst=1,10,0,1496,true
P026,176,gaze,static,1,true,declutter,Triggered: RT p75=966ms, err_burst=3,5,0,753.4000000953674,true
P026,177,gaze,static,1,true,declutter,Triggered: RT p75=966ms, err_burst=3,6,0,797.8999996185303,false
P026,178,gaze,static,1,true,declutter,Triggered: RT p75=966ms, err_burst=3,7,0,955,false
P026,179,gaze,static,1,true,declutter,Triggered: RT p75=965ms, err_burst=3,8,0,658.3999996185303,true
P026,180,gaze,static,1,true,declutter,Triggered: RT p75=964ms, err_burst=3,9,0,678.3000001907349,true
P026,181,gaze,static,1,true,declutter,Triggered: RT p75=963ms, err_burst=2,10,0,936.2000002861024,true
P026,209,gaze,adaptive,1,true,declutter,Triggered: RT p75=961ms, err_burst=3,11,0,1085.5999999046326,true
P026,210,gaze,adaptive,1,true,declutter,Triggered: RT p75=960ms, err_burst=2,12,0,815.8000001907349,true
P026,211,gaze,adaptive,1,true,declutter,Triggered: RT p75=960ms, err_burst=2,12,0,835.5,true
P026,212,gaze,adaptive,1,true,declutter,Triggered: RT p75=960ms, err_burst=2,12,0,656.8000001907349,true
P026,213,gaze,adaptive,1,true,declutter,Triggered: RT p75=960ms, err_burst=2,12,0,808.7999997138977,true
P026,214,gaze,adaptive,1,true,declutter,Triggered: RT p75=960ms, err_burst=2,12,0,848.7999997138977,false
P026,215,gaze,adaptive,1,true,declutter,Triggered: RT p75=960ms, err_burst=2,12,0,1375.4000000953674,false
P026,216,gaze,adaptive,1,true,declutter,Triggered: RT p75=960ms, err_burst=2,12,0,847.7000002861023,true
P026,217,gaze,adaptive,1,true,declutter,Triggered: RT p75=960ms, err_burst=2,12,0,1141.2000002861023,false
P026,218,gaze,adaptive,1,true,declutter,Triggered: RT p75=960ms, err_burst=2,12,0,964.4000000953674,true
P026,219,gaze,adaptive,1,true,declutter,Triggered: RT p75=959ms, err_burst=2,5,0,1119.7999997138977,false
P026,220,gaze,adaptive,1,true,declutter,Triggered: RT p75=959ms, err_burst=2,6,0,1293,false
P026,221,gaze,adaptive,1,true,declutter,Triggered: RT p75=959ms, err_burst=3,7,0,2178.7999997138977,false
P026,222,gaze,adaptive,1,true,declutter,Triggered: RT p75=955ms, err_burst=3,8,0,737,true
P026,223,gaze,adaptive,1,true,declutter,Triggered: RT p75=955ms, err_burst=3,9,0,1123.1999998092651,false
P026,224,gaze,adaptive,1,true,declutter,Triggered: RT p75=961ms, err_burst=3,10,0,1169.4000000953674,true
P026,225,gaze,adaptive,1,true,declutter,Triggered: RT p75=960ms, err_burst=3,11,0,941.0999999046326,true
P026,226,gaze,adaptive,1,true,declutter,Triggered: RT p75=959ms, err_burst=3,12,0,711.3000001907349,true
P026,227,gaze,adaptive,1,true,declutter,Triggered: RT p75=959ms, err_burst=3,13,0,1028.5,false
P026,228,gaze,adaptive,1,true,declutter,Triggered: RT p75=962ms, err_burst=3,14,0,1093.8000001907349,true
P026,229,gaze,adaptive,1,true,declutter,Triggered: RT p75=962ms, err_burst=2,15,0,940,false
P026,230,gaze,adaptive,1,true,declutter,Triggered: RT p75=963ms, err_burst=1,16,0,1105.0999999046326,true
P026,231,gaze,adaptive,1,true,declutter,Triggered: RT p75=963ms, err_burst=1,16,0,936.5999999046326,true
P026,232,gaze,adaptive,1,true,declutter,Triggered: RT p75=963ms, err_burst=1,16,0,827.3000001907349,true
P026,233,gaze,adaptive,1,true,declutter,Triggered: RT p75=963ms, err_burst=1,16,0,1078.9000000953674,true
P026,234,gaze,adaptive,1,true,declutter,Triggered: RT p75=963ms, err_burst=1,16,0,719.6000003814697,true
P026,235,gaze,adaptive,1,true,declutter,Triggered: RT p75=963ms, err_burst=1,16,0,835.3000001907349,true
P027,183,gaze,adaptive,1,true,declutter,Triggered: RT p75=1413ms, err_burst=1,5,0,2045.7999999523165,true
P027,184,gaze,adaptive,1,true,declutter,Triggered: RT p75=1415ms, err_burst=1,6,0,1494.0999999046326,true
P027,185,gaze,adaptive,1,true,declutter,Triggered: RT p75=1415ms, err_burst=1,6,0,1009.3000001907347,true
P027,186,gaze,adaptive,1,true,declutter,Triggered: RT p75=1415ms, err_burst=1,6,0,1395.9000000953674,true
P027,187,gaze,adaptive,1,true,declutter,Triggered: RT p75=1415ms, err_burst=1,6,0,1193.7000000476835,true
P027,188,gaze,adaptive,1,true,declutter,Triggered: RT p75=1415ms, err_burst=1,6,0,1816.5999999046328,false
P027,189,gaze,adaptive,1,true,declutter,Triggered: RT p75=1415ms, err_burst=1,6,0,953.5,true
P027,190,gaze,adaptive,1,true,declutter,Triggered: RT p75=1415ms, err_burst=1,6,0,959.7999999523164,true
P027,191,gaze,adaptive,1,true,declutter,Triggered: RT p75=1415ms, err_burst=1,6,0,993.7999999523164,true
P027,192,gaze,adaptive,1,true,declutter,Triggered: RT p75=1415ms, err_burst=1,6,0,1420.2000000476835,true
P027,193,gaze,adaptive,1,true,declutter,Triggered: RT p75=1415ms, err_burst=1,6,0,1350.9000000953674,true
P027,194,gaze,adaptive,1,true,declutter,Triggered: RT p75=1415ms, err_burst=1,6,0,1600.2999999523165,true
P027,195,gaze,adaptive,1,true,declutter,Triggered: RT p75=1415ms, err_burst=1,6,0,1689.0999999046326,true
P027,196,gaze,adaptive,1,true,declutter,Triggered: RT p75=1415ms, err_burst=1,6,0,1625.2999999523165,true
P027,197,gaze,adaptive,1,true,declutter,Triggered: RT p75=1415ms, err_burst=1,6,0,1179.8999998569489,true
P027,198,gaze,adaptive,1,true,declutter,Triggered: RT p75=1415ms, err_burst=1,6,0,1003.2999999523164,true
P027,199,gaze,adaptive,1,true,declutter,Triggered: RT p75=1415ms, err_burst=1,6,0,1044.3999998569489,true
P027,200,gaze,adaptive,1,true,declutter,Triggered: RT p75=1415ms, err_burst=1,6,0,1374.6000001430511,true
P027,201,gaze,adaptive,1,true,declutter,Triggered: RT p75=1415ms, err_burst=1,6,0,2321.7000000476837,false
P027,202,gaze,adaptive,1,true,declutter,Triggered: RT p75=1415ms, err_burst=1,6,0,1476.5999999046326,true
P027,203,gaze,adaptive,1,true,declutter,Triggered: RT p75=1415ms, err_burst=1,6,0,1508.7999999523165,true
P027,204,gaze,adaptive,1,true,declutter,Triggered: RT p75=1415ms, err_burst=1,6,0,1370.5,true
P027,205,gaze,adaptive,1,true,declutter,Triggered: RT p75=1415ms, err_burst=1,6,0,1434.2999999523165,true
P027,206,gaze,adaptive,1,true,declutter,Triggered: RT p75=1415ms, err_burst=1,6,0,1307.3999998569489,true
P027,207,gaze,adaptive,1,true,declutter,Triggered: RT p75=1415ms, err_burst=1,6,0,1550.6999998092651,true
P027,208,gaze,adaptive,1,true,declutter,Triggered: RT p75=1415ms, err_burst=1,6,0,922.8000001907347,true
P028,24,hand,adaptive,1,true,inflate_width,Triggered: RT p75=1270ms, err_burst=2,5,0,794.5,true
P028,25,hand,adaptive,1,true,inflate_width,Triggered: RT p75=1297ms, err_burst=2,6,0,2661.2999999523163,true
P028,26,hand,adaptive,1,true,inflate_width,Triggered: RT p75=1286ms, err_burst=2,7,0,698.5,true
P028,27,hand,adaptive,1,true,inflate_width,Triggered: RT p75=1276ms, err_burst=2,8,0,896.6000000238419,true
P028,28,hand,adaptive,1,true,inflate_width,Triggered: RT p75=1308ms, err_burst=1,9,0,1449,true
P028,29,hand,adaptive,1,true,inflate_width,Triggered: RT p75=1308ms, err_burst=1,9,0,906.600000023842,true
P028,30,hand,adaptive,1,true,inflate_width,Triggered: RT p75=1308ms, err_burst=1,9,0,1074.4000000953674,true
P028,31,hand,adaptive,1,true,inflate_width,Triggered: RT p75=1308ms, err_burst=1,9,0,666.5,true
P028,32,hand,adaptive,1,true,inflate_width,Triggered: RT p75=1308ms, err_burst=1,9,0,1069,true
P028,105,gaze,static,1,true,declutter,Triggered: RT p75=1098ms, err_burst=2,5,0,641,true
P028,106,gaze,static,1,true,declutter,Triggered: RT p75=1098ms, err_burst=1,6,0,1153.5,false
P028,107,gaze,static,1,true,declutter,Triggered: RT p75=1098ms, err_burst=2,7,0,960.100000023842,false
P028,108,gaze,static,1,true,declutter,Triggered: RT p75=1231ms, err_burst=2,8,0,1341.0999999046326,true
P028,109,gaze,static,1,true,declutter,Triggered: RT p75=1335ms, err_burst=2,9,0,1332.5,true
P028,110,gaze,static,1,true,declutter,Triggered: RT p75=1227ms, err_burst=2,10,0,848.1000000238419,false
P028,111,gaze,static,1,true,declutter,Triggered: RT p75=1280ms, err_burst=2,11,0,703.2999999523163,false
P028,112,gaze,static,1,true,declutter,Triggered: RT p75=1227ms, err_burst=2,12,0,935,true
P028,113,gaze,static,1,true,declutter,Triggered: RT p75=1227ms, err_burst=2,13,0,667.8999999761581,true
P028,114,gaze,static,1,true,declutter,Triggered: RT p75=1227ms, err_burst=2,14,0,692.3000000715256,true
P028,115,gaze,static,1,true,declutter,Triggered: RT p75=1174ms, err_burst=2,15,0,1090.2000000476835,true
P028,116,gaze,static,1,true,declutter,Triggered: RT p75=1174ms, err_burst=2,16,0,614.8999999761581,false
P028,117,gaze,static,1,true,declutter,Triggered: RT p75=1174ms, err_burst=2,17,0,674.5,true
P028,118,gaze,static,1,true,declutter,Triggered: RT p75=1121ms, err_burst=2,18,0,816.1999999284744,true
P028,119,gaze,static,1,true,declutter,Triggered: RT p75=1090ms, err_burst=2,19,0,896.6999999284744,true
P028,120,gaze,static,1,true,declutter,Triggered: RT p75=1090ms, err_burst=2,19,0,971.5,true
P028,121,gaze,static,1,true,declutter,Triggered: RT p75=1090ms, err_burst=2,19,0,1216.100000023842,true
P028,122,gaze,static,1,true,declutter,Triggered: RT p75=1090ms, err_burst=2,19,0,1179.6999999284744,true
P028,123,gaze,static,1,true,declutter,Triggered: RT p75=1090ms, err_burst=2,19,0,1106.899999976158,false
P028,124,gaze,static,1,true,declutter,Triggered: RT p75=1090ms, err_burst=2,19,0,869.2999999523163,true
P028,125,gaze,static,1,true,declutter,Triggered: RT p75=1090ms, err_burst=2,19,0,933,false
P028,126,gaze,static,1,true,declutter,Triggered: RT p75=1090ms, err_burst=2,19,0,1230.3000000715256,true
P028,127,gaze,static,1,true,declutter,Triggered: RT p75=1090ms, err_burst=2,19,0,770.5,true
P028,155,gaze,adaptive,1,true,declutter,Triggered: RT p75=1090ms, err_burst=2,19,0,637.6999999284744,true
P028,156,gaze,adaptive,1,true,declutter,Triggered: RT p75=1090ms, err_burst=2,19,0,1416.0999999046326,true
P028,157,gaze,adaptive,1,true,declutter,Triggered: RT p75=1090ms, err_burst=2,19,0,969.2000000476836,true
P028,158,gaze,adaptive,1,true,declutter,Triggered: RT p75=1090ms, err_burst=2,19,0,1550.7999999523165,true
P028,159,gaze,adaptive,1,true,declutter,Triggered: RT p75=1090ms, err_burst=2,19,0,790.1000000238419,false
P028,160,gaze,adaptive,1,true,declutter,Triggered: RT p75=1090ms, err_burst=2,19,0,1456.600000023842,false
P028,161,gaze,adaptive,1,true,declutter,Triggered: RT p75=1090ms, err_burst=2,19,0,730.6000000238419,false
P028,162,gaze,adaptive,1,true,declutter,Triggered: RT p75=1090ms, err_burst=2,19,0,1097.899999976158,false
P028,163,gaze,adaptive,1,true,declutter,Triggered: RT p75=1090ms, err_burst=2,19,0,1112.5,false
P028,164,gaze,adaptive,1,true,declutter,Triggered: RT p75=1216ms, err_burst=5,5,0,896.2000000476837,true
P028,165,gaze,adaptive,1,true,declutter,Triggered: RT p75=1216ms, err_burst=5,6,0,679.5,true
P028,166,gaze,adaptive,1,true,declutter,Triggered: RT p75=1216ms, err_burst=5,7,0,1137.100000023842,false
P028,167,gaze,adaptive,1,true,declutter,Triggered: RT p75=1215ms, err_burst=5,8,0,623.1000000238419,true
P028,168,gaze,adaptive,1,true,declutter,Triggered: RT p75=1216ms, err_burst=5,9,0,1771,true
P028,169,gaze,adaptive,1,true,declutter,Triggered: RT p75=1216ms, err_burst=4,10,0,1519.5,false
P028,170,gaze,adaptive,1,true,declutter,Triggered: RT p75=1216ms, err_burst=3,11,0,1167.2000000476835,true
P028,171,gaze,adaptive,1,true,declutter,Triggered: RT p75=1216ms, err_burst=2,12,0,947.6999999284744,true
P028,172,gaze,adaptive,1,true,declutter,Triggered: RT p75=1216ms, err_burst=2,12,0,1195.2999999523165,true
P028,173,gaze,adaptive,1,true,declutter,Triggered: RT p75=1216ms, err_burst=2,12,0,1066.1999999284744,true
P028,174,gaze,adaptive,1,true,declutter,Triggered: RT p75=1216ms, err_burst=2,12,0,796.2999999523163,true
P028,175,gaze,adaptive,1,true,declutter,Triggered: RT p75=1216ms, err_burst=2,12,0,993.399999976158,true
P029,57,gaze,static,1,true,declutter,Triggered: RT p75=2452ms, err_burst=3,5,0,1921.899999976158,true
P029,58,gaze,static,1,true,declutter,Triggered: RT p75=2460ms, err_burst=3,6,0,2826.5,true
P029,59,gaze,static,1,true,declutter,Triggered: RT p75=2475ms, err_burst=3,7,0,2697.399999976158,true
P029,60,gaze,static,1,true,declutter,Triggered: RT p75=2470ms, err_burst=3,8,0,2196.2000000476837,true
P029,61,gaze,static,1,true,declutter,Triggered: RT p75=2465ms, err_burst=3,9,0,2209.399999976158,true
P029,62,gaze,static,1,true,declutter,Triggered: RT p75=2480ms, err_burst=3,10,0,2535.2000000476837,true
P029,63,gaze,static,1,true,declutter,Triggered: RT p75=2509ms, err_burst=3,11,0,2518.600000023842,true
P029,64,gaze,static,1,true,declutter,Triggered: RT p75=2509ms, err_burst=2,12,0,2422.3000000715256,false
P029,65,gaze,static,1,true,declutter,Triggered: RT p75=2509ms, err_burst=2,12,0,1878.5,true
P029,66,gaze,static,1,true,declutter,Triggered: RT p75=2509ms, err_burst=2,12,0,2748.7999999523163,true
P029,67,gaze,static,1,true,declutter,Triggered: RT p75=2509ms, err_burst=2,12,0,2514.7000000476837,true
P029,68,gaze,static,1,true,declutter,Triggered: RT p75=2509ms, err_burst=2,12,0,1999.7000000476835,true
P029,69,gaze,static,1,true,declutter,Triggered: RT p75=2509ms, err_burst=2,12,0,3327.099999904633,true
P029,70,gaze,static,1,true,declutter,Triggered: RT p75=2509ms, err_burst=2,12,0,2710.6999999284744,false
P029,71,gaze,static,1,true,declutter,Triggered: RT p75=2509ms, err_burst=2,12,0,2095.5,true
P029,72,gaze,static,1,true,declutter,Triggered: RT p75=2509ms, err_burst=2,12,0,2108.7999999523163,false
P029,73,gaze,static,1,true,declutter,Triggered: RT p75=2509ms, err_burst=2,12,0,2011.600000023842,true
P029,74,hand,adaptive,1,true,declutter,Triggered: RT p75=2509ms, err_burst=2,12,0,2148.099999904633,true
P029,75,hand,adaptive,1,true,declutter,Triggered: RT p75=2509ms, err_burst=2,12,0,2342.899999976158,true
P029,76,hand,adaptive,1,true,declutter,Triggered: RT p75=2509ms, err_burst=2,12,0,1764.7999999523165,true
P029,77,hand,adaptive,1,true,declutter,Triggered: RT p75=2509ms, err_burst=2,12,0,1537.5,true
P029,78,hand,adaptive,1,true,declutter,Triggered: RT p75=2509ms, err_burst=2,12,0,1221.399999976158,true
P029,79,hand,adaptive,1,true,declutter,Triggered: RT p75=2509ms, err_burst=2,12,0,1267.600000023842,true
P029,80,hand,adaptive,1,true,declutter,Triggered: RT p75=2509ms, err_burst=2,12,0,1192.100000023842,true
P029,143,gaze,adaptive,1,true,declutter,Triggered: RT p75=2710ms, err_burst=2,5,0,2619.100000023842,false
P029,144,gaze,adaptive,1,true,declutter,Triggered: RT p75=2710ms, err_burst=2,6,0,2358.6999999284744,false
P029,145,gaze,adaptive,1,true,declutter,Triggered: RT p75=2697ms, err_burst=2,7,0,2250.2999999523163,true
P029,146,gaze,adaptive,1,true,declutter,Triggered: RT p75=2697ms, err_burst=2,8,0,3188.2000000476837,false
P029,147,gaze,adaptive,1,true,declutter,Triggered: RT p75=2697ms, err_burst=2,9,0,1976.600000023842,true
P029,148,gaze,adaptive,1,true,declutter,Triggered: RT p75=2612ms, err_burst=2,10,0,2292.8000000715256,true
P029,149,gaze,adaptive,1,true,declutter,Triggered: RT p75=2612ms, err_burst=2,11,0,2885.400000095367,true
P029,150,gaze,adaptive,1,true,declutter,Triggered: RT p75=2612ms, err_burst=2,12,0,1971.5,true
P029,151,gaze,adaptive,1,true,declutter,Triggered: RT p75=2697ms, err_burst=2,13,0,2792.6999999284744,true
P029,152,gaze,adaptive,1,true,declutter,Triggered: RT p75=2697ms, err_burst=2,14,0,2102.899999976158,true
P029,153,gaze,adaptive,1,true,declutter,Triggered: RT p75=2697ms, err_burst=2,14,0,2500.100000023842,true
P029,154,gaze,adaptive,1,true,declutter,Triggered: RT p75=2697ms, err_burst=2,14,0,2118.100000023842,true
P030,127,gaze,adaptive,1,true,declutter,Triggered: RT p75=1788ms, err_burst=3,5,0,1929,true
P030,209,hand,adaptive,1,true,declutter,Triggered: RT p75=1788ms, err_burst=3,5,0,2978,true
P030,210,hand,adaptive,1,true,declutter,Triggered: RT p75=1788ms, err_burst=3,5,0,2498,true
P030,211,hand,adaptive,1,true,declutter,Triggered: RT p75=1788ms, err_burst=3,5,0,2439,true
P030,212,hand,adaptive,1,true,declutter,Triggered: RT p75=1788ms, err_burst=3,5,0,767,true
P030,213,hand,adaptive,1,true,declutter,Triggered: RT p75=1788ms, err_burst=3,5,0,873.9999999997672,true
P030,214,hand,adaptive,1,true,declutter,Triggered: RT p75=1788ms, err_burst=3,5,0,2922,true
P030,215,hand,adaptive,1,true,declutter,Triggered: RT p75=1788ms, err_burst=3,5,0,627,true
P030,216,hand,adaptive,1,true,declutter,Triggered: RT p75=1788ms, err_burst=3,5,0,1210,true
P030,217,hand,adaptive,1,true,declutter,Triggered: RT p75=1788ms, err_burst=3,5,0,1374,true
P030,218,hand,adaptive,1,true,declutter,Triggered: RT p75=1788ms, err_burst=3,5,0,997,true
P030,219,hand,adaptive,1,true,declutter,Triggered: RT p75=1788ms, err_burst=3,5,0,2149,true
P030,220,hand,adaptive,1,true,declutter,Triggered: RT p75=1788ms, err_burst=3,5,0,2363,true
P030,221,hand,adaptive,1,true,declutter,Triggered: RT p75=1788ms, err_burst=3,5,0,862.0000000002328,true
P030,222,hand,adaptive,1,true,declutter,Triggered: RT p75=1788ms, err_burst=3,5,0,985,true
P030,223,hand,adaptive,1,true,declutter,Triggered: RT p75=1788ms, err_burst=3,5,0,849,true
P030,224,hand,adaptive,1,true,declutter,Triggered: RT p75=1788ms, err_burst=3,5,0,1340.0000000002328,true
P031,51,gaze,adaptive,1,true,declutter,Triggered: RT p75=971ms, err_burst=3,5,0,1160.3000000715256,false
P031,52,gaze,adaptive,1,true,declutter,Triggered: RT p75=975ms, err_burst=3,6,0,1190.5,true
P031,53,gaze,adaptive,1,true,declutter,Triggered: RT p75=974ms, err_burst=3,7,0,923.5,true
P031,54,gaze,adaptive,1,true,declutter,Triggered: RT p75=973ms, err_burst=2,8,0,644,true
P031,55,gaze,adaptive,1,true,declutter,Triggered: RT p75=973ms, err_burst=1,9,0,1177.1999999284744,false
P031,56,gaze,adaptive,1,true,declutter,Triggered: RT p75=973ms, err_burst=2,10,0,1141.100000023842,false
P031,57,gaze,adaptive,1,true,declutter,Triggered: RT p75=971ms, err_burst=2,11,0,810.7999999523163,true
P031,58,gaze,adaptive,1,true,declutter,Triggered: RT p75=975ms, err_burst=2,12,0,1119.8000000715256,true
P031,59,gaze,adaptive,1,true,declutter,Triggered: RT p75=974ms, err_burst=2,13,0,709.9000000953674,true
P031,60,gaze,adaptive,1,true,declutter,Triggered: RT p75=973ms, err_burst=2,14,0,787.6999999284744,true
P031,61,gaze,adaptive,1,true,declutter,Triggered: RT p75=973ms, err_burst=2,15,0,845.2999999523163,false
P031,62,gaze,adaptive,1,true,declutter,Triggered: RT p75=973ms, err_burst=2,16,0,744.3999999761581,false
P031,63,gaze,adaptive,1,true,declutter,Triggered: RT p75=971ms, err_burst=2,17,0,823.2999999523163,true
P031,64,gaze,adaptive,1,true,declutter,Triggered: RT p75=970ms, err_burst=2,18,0,876.9000000953674,true
P031,65,gaze,adaptive,1,true,declutter,Triggered: RT p75=970ms, err_burst=2,19,0,891.8999999761581,false
P031,66,gaze,adaptive,1,true,declutter,Triggered: RT p75=970ms, err_burst=2,20,0,1209.899999976158,false
P031,67,gaze,adaptive,1,true,declutter,Triggered: RT p75=970ms, err_burst=3,21,0,1128.399999976158,false
P031,68,gaze,adaptive,1,true,declutter,Triggered: RT p75=970ms, err_burst=4,22,0,1094.100000023842,false
P031,69,gaze,adaptive,1,true,declutter,Triggered: RT p75=974ms, err_burst=4,23,0,1209,true
P031,70,gaze,adaptive,1,true,declutter,Triggered: RT p75=974ms, err_burst=4,24,0,1316.2000000476835,false
P031,71,gaze,adaptive,1,true,declutter,Triggered: RT p75=992ms, err_burst=4,25,0,1060,true
P031,72,gaze,adaptive,1,true,declutter,Triggered: RT p75=983ms, err_burst=4,26,0,742.7000000476837,true
P031,73,gaze,adaptive,1,true,declutter,Triggered: RT p75=975ms, err_burst=4,27,0,781.1000000238419,true
P031,74,gaze,static,1,true,declutter,Triggered: RT p75=975ms, err_burst=4,28,0,1227.100000023842,false
P031,75,gaze,static,1,true,declutter,Triggered: RT p75=974ms, err_burst=3,29,0,960.600000023842,true
P031,76,gaze,static,1,true,declutter,Triggered: RT p75=985ms, err_burst=2,30,0,994.7000000476836,true
P031,77,gaze,static,1,true,declutter,Triggered: RT p75=985ms, err_burst=1,31,0,1007.5,false
P031,78,gaze,static,1,true,declutter,Triggered: RT p75=985ms, err_burst=2,32,0,806.5,false
P031,79,gaze,static,1,true,declutter,Triggered: RT p75=980ms, err_burst=2,33,0,838.5,true
P031,80,gaze,static,1,true,declutter,Triggered: RT p75=975ms, err_burst=2,34,0,858.8999999761581,true
P031,81,gaze,static,1,true,declutter,Triggered: RT p75=975ms, err_burst=2,35,0,960.7999999523164,false
P031,82,gaze,static,1,true,declutter,Triggered: RT p75=974ms, err_burst=2,36,0,962.899999976158,true
P031,83,gaze,static,1,true,declutter,Triggered: RT p75=985ms, err_burst=2,37,0,1053.5,true
P031,84,gaze,static,1,true,declutter,Triggered: RT p75=980ms, err_burst=2,38,0,810.5,true
P031,85,gaze,static,1,true,declutter,Triggered: RT p75=995ms, err_burst=2,39,0,1010.600000023842,true
P031,86,gaze,static,1,true,declutter,Triggered: RT p75=995ms, err_burst=2,40,0,791,false
P031,87,gaze,static,1,true,declutter,Triggered: RT p75=995ms, err_burst=2,41,0,1226.5,false
P031,88,gaze,static,1,true,declutter,Triggered: RT p75=990ms, err_burst=2,42,0,939.2999999523164,true
P031,89,gaze,static,1,true,declutter,Triggered: RT p75=1002ms, err_burst=2,43,0,1208.600000023842,true
P031,90,gaze,static,1,true,declutter,Triggered: RT p75=998ms, err_burst=2,44,0,958.100000023842,true
P031,91,gaze,static,1,true,declutter,Triggered: RT p75=995ms, err_burst=2,45,0,588.9000000953674,true
P031,92,gaze,static,1,true,declutter,Triggered: RT p75=990ms, err_burst=2,46,0,726.1000000238419,true
P031,93,gaze,static,1,true,declutter,Triggered: RT p75=1002ms, err_burst=2,47,0,1243.100000023842,true
P031,94,gaze,static,1,true,declutter,Triggered: RT p75=1002ms, err_burst=2,48,0,1104.2999999523165,false
P031,95,gaze,static,1,true,declutter,Triggered: RT p75=1002ms, err_burst=2,49,0,1072.100000023842,false
P031,96,gaze,static,1,true,declutter,Triggered: RT p75=998ms, err_burst=2,50,0,906.7000000476836,true
P031,97,gaze,static,1,true,declutter,Triggered: RT p75=995ms, err_burst=2,51,0,957.600000023842,true
P031,98,gaze,static,1,true,declutter,Triggered: RT p75=990ms, err_burst=2,52,0,726.6000000238419,true
P031,99,gaze,static,1,true,declutter,Triggered: RT p75=985ms, err_burst=2,53,0,597.5,true
P031,100,gaze,static,1,true,declutter,Triggered: RT p75=980ms, err_burst=2,54,0,860.8999999761581,true
P031,182,hand,adaptive,1,true,declutter,Triggered: RT p75=980ms, err_burst=2,54,0,1240.5,true
P031,183,hand,adaptive,1,true,declutter,Triggered: RT p75=980ms, err_burst=2,54,0,794.3000000715256,true
P031,184,hand,adaptive,1,true,declutter,Triggered: RT p75=980ms, err_burst=2,54,0,1227.100000023842,true
P031,185,hand,adaptive,1,true,declutter,Triggered: RT p75=980ms, err_burst=2,54,0,1375.3000000715256,true
P031,186,hand,adaptive,1,true,declutter,Triggered: RT p75=980ms, err_burst=2,54,0,1056.6999999284744,true
P031,187,hand,adaptive,1,true,declutter,Triggered: RT p75=980ms, err_burst=2,54,0,1343.600000023842,true
P031,188,hand,adaptive,1,true,declutter,Triggered: RT p75=980ms, err_burst=2,54,0,760.7000000476837,true
P031,189,hand,adaptive,1,true,declutter,Triggered: RT p75=980ms, err_burst=2,54,0,1943.0999999046328,true
P031,190,hand,adaptive,1,true,declutter,Triggered: RT p75=980ms, err_burst=2,54,0,1128.6999999284744,true
P031,191,hand,adaptive,1,true,declutter,Triggered: RT p75=980ms, err_burst=2,54,0,707.2000000476837,true
P031,192,hand,adaptive,1,true,declutter,Triggered: RT p75=980ms, err_burst=2,54,0,2142.5,true
P031,193,hand,adaptive,1,true,declutter,Triggered: RT p75=980ms, err_burst=2,54,0,826.1999999284744,true
P031,194,hand,adaptive,1,true,declutter,Triggered: RT p75=980ms, err_burst=2,54,0,706.7999999523163,true
P031,195,hand,adaptive,1,true,declutter,Triggered: RT p75=980ms, err_burst=2,54,0,925.899999976158,true
P031,196,hand,adaptive,1,true,declutter,Triggered: RT p75=980ms, err_burst=2,54,0,874.8999999761581,true
P032,24,gaze,adaptive,1,true,declutter,Triggered: RT p75=946ms, err_burst=2,5,0,630.6999998092651,true
P032,25,gaze,adaptive,1,true,declutter,Triggered: RT p75=942ms, err_burst=2,6,0,750.1000001430511,true
P032,26,gaze,adaptive,1,true,declutter,Triggered: RT p75=938ms, err_burst=2,7,0,686,true
P032,27,gaze,adaptive,1,true,declutter,Triggered: RT p75=938ms, err_burst=1,8,0,1153.2999999523165,false
P032,28,gaze,adaptive,1,true,declutter,Triggered: RT p75=947ms, err_burst=1,9,0,1432.2000000476835,true
P032,29,gaze,adaptive,1,true,declutter,Triggered: RT p75=951ms, err_burst=1,10,0,1447.5,true
P032,30,gaze,adaptive,1,true,declutter,Triggered: RT p75=1077ms, err_burst=1,11,0,1927.2999999523165,true
P032,31,gaze,adaptive,1,true,declutter,Triggered: RT p75=1077ms, err_burst=1,11,0,978.1999998092653,true
P032,32,gaze,adaptive,1,true,declutter,Triggered: RT p75=1077ms, err_burst=1,11,0,899.7000000476837,true
P032,33,gaze,adaptive,1,true,declutter,Triggered: RT p75=1077ms, err_burst=1,11,0,1832.6000001430511,true
P032,34,gaze,adaptive,1,true,declutter,Triggered: RT p75=1077ms, err_burst=1,11,0,2738,true
P032,35,gaze,adaptive,1,true,declutter,Triggered: RT p75=1077ms, err_burst=1,11,0,1590.7999999523165,true
P032,36,gaze,adaptive,1,true,declutter,Triggered: RT p75=1077ms, err_burst=1,11,0,925.0999999046326,true
P032,37,gaze,adaptive,1,true,declutter,Triggered: RT p75=1077ms, err_burst=1,11,0,1335.5999999046326,true
P032,38,gaze,adaptive,1,true,declutter,Triggered: RT p75=1077ms, err_burst=1,11,0,1816.5,true
P032,39,gaze,adaptive,1,true,declutter,Triggered: RT p75=1077ms, err_burst=1,11,0,1533.5999999046326,true
P032,40,gaze,adaptive,1,true,declutter,Triggered: RT p75=1077ms, err_burst=1,11,0,1706.7999999523165,true
P032,41,gaze,adaptive,1,true,declutter,Triggered: RT p75=1077ms, err_burst=1,11,0,1408.0999999046326,true
P032,42,gaze,adaptive,1,true,declutter,Triggered: RT p75=1077ms, err_burst=1,11,0,1212.3999998569489,true
P032,43,gaze,adaptive,1,true,declutter,Triggered: RT p75=1077ms, err_burst=1,11,0,2084.7999999523163,true
P032,44,gaze,adaptive,1,true,declutter,Triggered: RT p75=1077ms, err_burst=1,11,0,1882.5,true
P032,45,gaze,adaptive,1,true,declutter,Triggered: RT p75=1077ms, err_burst=1,11,0,903.7999999523164,true
P032,46,gaze,adaptive,1,true,declutter,Triggered: RT p75=1077ms, err_burst=1,11,0,1142.9000000953674,true
P032,155,hand,adaptive,1,true,declutter,Triggered: RT p75=1077ms, err_burst=1,11,0,879.7000000476837,true
P032,156,hand,adaptive,1,true,declutter,Triggered: RT p75=1077ms, err_burst=1,11,0,1017,true
P032,157,hand,adaptive,1,true,declutter,Triggered: RT p75=1077ms, err_burst=1,11,0,977.1000001430511,true
P032,158,hand,adaptive,1,true,declutter,Triggered: RT p75=1077ms, err_burst=1,11,0,978,true
P036,113,gaze,static,1,true,declutter,Triggered: RT p75=916ms, err_burst=2,5,0,496.2000000011176,true
P036,114,gaze,static,1,true,declutter,Triggered: RT p75=894ms, err_burst=2,6,0,447.5,false
P036,115,gaze,static,1,true,declutter,Triggered: RT p75=836ms, err_burst=2,7,0,561.4000000003725,true
P036,116,gaze,static,1,true,declutter,Triggered: RT p75=786ms, err_burst=2,8,0,692.9000000003725,true
P036,117,gaze,static,1,true,declutter,Triggered: RT p75=786ms, err_burst=2,9,0,459.5,true
P036,118,gaze,static,1,true,declutter,Triggered: RT p75=786ms, err_burst=1,10,0,842.6000000014901,true
P036,119,gaze,static,1,true,declutter,Triggered: RT p75=794ms, err_burst=1,11,0,832.8000000007451,false
P036,120,gaze,static,1,true,declutter,Triggered: RT p75=794ms, err_burst=1,11,0,778.5999999996275,true
P036,121,gaze,static,1,true,declutter,Triggered: RT p75=794ms, err_burst=1,11,0,729.6000000014901,false
P036,122,gaze,static,1,true,declutter,Triggered: RT p75=794ms, err_burst=1,11,0,943.6999999992548,true
P036,123,gaze,static,1,true,declutter,Triggered: RT p75=794ms, err_burst=1,11,0,645.9000000003725,true
P036,124,gaze,static,1,true,declutter,Triggered: RT p75=794ms, err_burst=1,11,0,915.6999999992548,true
P036,125,gaze,static,1,true,declutter,Triggered: RT p75=794ms, err_burst=1,11,0,723.4000000003725,false
P036,126,gaze,static,1,true,declutter,Triggered: RT p75=794ms, err_burst=1,11,0,607.2000000011176,true
P036,127,gaze,static,1,true,declutter,Triggered: RT p75=794ms, err_burst=1,11,0,845,false
P036,155,gaze,adaptive,1,true,declutter,Triggered: RT p75=794ms, err_burst=1,11,0,768,true
P036,156,gaze,adaptive,1,true,declutter,Triggered: RT p75=794ms, err_burst=1,11,0,846,false
P036,157,gaze,adaptive,1,true,declutter,Triggered: RT p75=794ms, err_burst=1,11,0,563.2000000011176,true
P036,158,gaze,adaptive,1,true,declutter,Triggered: RT p75=802ms, err_burst=2,5,0,487.3999999985099,false
P036,159,gaze,adaptive,1,true,declutter,Triggered: RT p75=798ms, err_burst=2,6,0,532.5999999996275,true
P036,160,gaze,adaptive,1,true,declutter,Triggered: RT p75=809ms, err_burst=2,7,0,865.9000000003725,true
P036,161,gaze,adaptive,1,true,declutter,Triggered: RT p75=805ms, err_burst=2,8,0,667.5,true
P036,162,gaze,adaptive,1,true,declutter,Triggered: RT p75=805ms, err_burst=1,9,0,832.9000000003725,false
P036,163,gaze,adaptive,1,true,declutter,Triggered: RT p75=813ms, err_burst=1,10,0,818.3000000007451,true
P036,164,gaze,adaptive,1,true,declutter,Triggered: RT p75=813ms, err_burst=1,11,0,1123.9000000003723,false
P036,165,gaze,adaptive,1,true,declutter,Triggered: RT p75=813ms, err_burst=2,12,0,1091.4000000003723,false
P036,166,gaze,adaptive,1,true,declutter,Triggered: RT p75=813ms, err_burst=3,13,0,1765,false
P036,167,gaze,adaptive,1,true,declutter,Triggered: RT p75=811ms, err_burst=3,14,0,563.9000000003725,true
P036,168,gaze,adaptive,1,true,declutter,Triggered: RT p75=817ms, err_burst=3,15,0,955.8000000007452,true
P036,169,gaze,adaptive,1,true,declutter,Triggered: RT p75=815ms, err_burst=3,16,0,655.3000000007451,true
P036,170,gaze,adaptive,1,true,declutter,Triggered: RT p75=813ms, err_burst=3,17,0,746.7999999988824,true
P036,171,gaze,adaptive,1,true,declutter,Triggered: RT p75=811ms, err_burst=3,18,0,644.4000000003725,true
P036,172,gaze,adaptive,1,true,declutter,Triggered: RT p75=809ms, err_burst=3,19,0,665.6999999992549,true
P036,173,gaze,adaptive,1,true,declutter,Triggered: RT p75=805ms, err_burst=3,20,0,600.1000000014901,true
P036,174,gaze,adaptive,1,true,declutter,Triggered: RT p75=805ms, err_burst=2,21,0,738.9000000003725,false
P036,175,gaze,adaptive,1,true,declutter,Triggered: RT p75=805ms, err_burst=2,21,0,805.8000000007451,true
P036,176,gaze,adaptive,1,true,declutter,Triggered: RT p75=805ms, err_burst=2,21,0,808.5,true
P036,177,gaze,adaptive,1,true,declutter,Triggered: RT p75=805ms, err_burst=2,21,0,793.5,true
P036,178,gaze,adaptive,1,true,declutter,Triggered: RT p75=805ms, err_burst=2,21,0,869.4000000003725,true
P036,179,gaze,adaptive,1,true,declutter,Triggered: RT p75=805ms, err_burst=2,21,0,793.8000000007451,true
P036,180,gaze,adaptive,1,true,declutter,Triggered: RT p75=805ms, err_burst=2,21,0,858.4000000003725,true
P036,181,gaze,adaptive,1,true,declutter,Triggered: RT p75=805ms, err_burst=2,21,0,699.4000000003725,true
P037,64,gaze,static,1,true,declutter,Triggered: RT p75=1492ms, err_burst=1,5,0,2397.800000000745,true
P037,65,gaze,static,1,true,declutter,Triggered: RT p75=1517ms, err_burst=1,6,0,2096.39999999851,true
P037,66,gaze,static,1,true,declutter,Triggered: RT p75=1517ms, err_burst=1,7,0,1950.300000000745,false
P037,67,gaze,static,1,true,declutter,Triggered: RT p75=1517ms, err_burst=1,7,0,1398.7000000011176,true
P037,68,gaze,static,1,true,declutter,Triggered: RT p75=1517ms, err_burst=1,7,0,2027.5,true
P037,69,gaze,static,1,true,declutter,Triggered: RT p75=1517ms, err_burst=1,7,0,1711.199999999255,true
P037,70,gaze,static,1,true,declutter,Triggered: RT p75=1517ms, err_burst=1,7,0,1122.2999999988824,true
P037,71,gaze,static,1,true,declutter,Triggered: RT p75=1517ms, err_burst=1,7,0,1458.2000000011176,true
P037,72,gaze,static,1,true,declutter,Triggered: RT p75=1517ms, err_burst=1,7,0,1592.89999999851,true
